Yaw,Roll,Pitch,ax,ay,az
0,-2.75,49.9375,-0.02,0.02,-0.02
0,-2.75,49.9375,-0.04,0.02,-0.03
0,-2.75,49.9375,-0.03,0.01,0
0,-2.75,49.9375,-0.04,0.02,0
0,-2.75,49.9375,-0.03,0,0
0,-2.75,49.9375,-0.06,0,0
0,-2.75,49.9375,-0.04,0.02,-0.01
0,-2.75,49.9375,-0.03,0,-0.01
0,-2.75,49.9375,-0.05,0,-0.03
0,-2.75,49.9375,-0.03,0.02,-0.02
0,-2.75,49.9375,-0.04,0,-0.02
0,-2.75,49.9375,-0.03,0,0
0,-2.75,49.9375,-0.04,0.02,-0.01
0,-2.75,49.9375,-0.05,0.01,-0.02
0,-2.75,49.9375,-0.04,0.01,0
0,-2.75,49.9375,-0.04,0.01,0
0,-2.75,49.9375,-0.03,0.01,0.02
0,-2.75,49.9375,-0.04,0.05,0
0,-2.75,49.9375,0.03,-0.23,0
0,-2.75,49.9375,-0.07,0.05,0.07
0,-2.75,49.9375,-0.11,0.05,-0.07
0,-2.75,49.9375,0.02,0.11,0.02
0,-2.75,49.9375,0.14,0.19,-0.14
0,-2.75,49.9375,-0.1,-0.02,0
359.9375,-2.75,49.9375,-0.13,-0.03,0
0,-2.75,49.9375,0.05,-0.13,0.1
0,-2.75,49.9375,-0.04,0.06,0
0,-2.75,49.9375,-0.01,0.08,-0.04
0,-2.75,49.9375,-0.02,0.02,-0.08
359.9375,-2.75,49.9375,-0.04,0,0
0,-2.75,49.9375,-0.01,0.02,0.01
0,-2.75,49.9375,0.03,0,0.06
0,-2.75,49.9375,-0.03,0.05,-0.02
359.9375,-2.75,49.9375,-0.06,0.03,-0.1
359.9375,-2.75,49.9375,-0.01,0.03,0.02
359.9375,-2.75,49.9375,0,0.01,0.05
359.9375,-2.75,49.9375,-0.04,0.01,0.04
359.9375,-2.75,49.9375,-0.03,0,-0.03
359.9375,-2.75,49.9375,-0.05,0.03,-0.05
359.9375,-2.75,49.9375,-0.03,0,0
359.9375,-2.75,49.9375,-0.02,0,0
359.9375,-2.75,49.9375,-0.02,0,0.02
359.9375,-2.75,49.9375,-0.04,0.01,0.01
359.9375,-2.75,49.9375,-0.02,0.02,0
359.9375,-2.75,49.9375,-0.04,0.02,0
359.9375,-2.75,49.9375,-0.03,0.04,-0.01
359.9375,-2.75,49.9375,-0.02,0.04,-0.03
359.9375,-2.75,49.9375,-0.03,0.02,-0.03
359.9375,-2.75,49.9375,0,0.03,0.01
359.9375,-2.75,49.9375,-0.02,0.02,0
359.9375,-2.75,49.9375,-0.05,0.01,0
359.9375,-2.75,49.9375,-0.03,0.04,-0.06
359.9375,-2.75,49.9375,-0.02,0.04,0
359.9375,-2.75,49.9375,-0.02,0.02,0
359.9375,-2.75,49.9375,-0.03,0.03,0
359.9375,-2.75,49.9375,-0.04,0.02,0.01
359.9375,-2.75,49.9375,-0.03,0.02,0
359.9375,-2.75,49.9375,-0.04,0,0.01
359.9375,-2.75,49.9375,-0.02,0.02,0.01
359.9375,-2.75,49.9375,-0.03,0.02,0
359.9375,-2.75,49.9375,-0.03,0.02,-0.01
359.9375,-2.75,49.9375,-0.03,0,0.01
359.9375,-2.75,49.9375,-0.04,0.02,-0.01
359.9375,-2.75,49.9375,-0.04,0.02,0.02
359.9375,-2.75,49.9375,-0.02,0.04,-0.01
359.9375,-2.75,49.9375,-0.01,0.03,-0.01
359.9375,-2.75,49.9375,-0.02,0.03,0.02
359.9375,-2.75,49.9375,-0.01,0.03,0
359.9375,-2.75,49.9375,-0.02,0.03,-0.03
359.9375,-2.75,49.9375,-0.02,0.01,-0.01
359.9375,-2.75,49.9375,-0.03,0.05,-0.02
359.9375,-2.75,49.9375,-0.03,0.02,-0.01
359.9375,-2.75,49.9375,-0.02,0.02,-0.01
359.9375,-2.75,49.9375,-0.03,0,-0.01
359.9375,-2.75,49.9375,-0.04,0.02,0.02
359.9375,-2.75,49.9375,-0.04,0.02,0
359.9375,-2.75,49.9375,-0.06,0.04,0.01
359.9375,-2.75,49.9375,-0.02,0.02,0
359.9375,-2.75,49.9375,-0.03,0.01,0
359.9375,-2.75,49.9375,-0.03,0,0.01
359.9375,-2.75,49.9375,-0.01,0.01,0
359.9375,-2.75,49.9375,-0.03,0,-0.01
359.9375,-2.75,49.9375,-0.03,0,0.01
359.9375,-2.75,49.9375,-0.02,0.02,0
359.9375,-2.75,49.9375,-0.01,0.02,0
359.9375,-2.75,49.9375,-0.02,0.02,-0.03
359.9375,-2.75,49.9375,-0.04,0.02,-0.01
359.9375,-2.75,49.9375,-0.03,0.02,0
359.9375,-2.75,49.9375,-0.01,0.02,0
359.9375,-2.75,49.9375,-0.01,0,0
359.9375,-2.75,49.9375,-0.02,0.02,-0.01
359.9375,-2.75,49.9375,-0.03,0.02,0.02
359.9375,-2.75,49.9375,-0.02,0.01,0
359.9375,-2.75,49.9375,-0.05,0,-0.02
359.9375,-2.75,49.9375,-0.03,0,-0.01
359.9375,-2.75,49.9375,-0.02,0.03,0
359.9375,-2.75,49.9375,-0.02,0.02,0
359.9375,-2.75,49.9375,-0.03,0.03,0
359.9375,-2.75,49.9375,-0.02,0.02,0.01
359.9375,-2.75,49.9375,-0.01,0.01,-0.01
359.9375,-2.75,49.9375,-0.04,0.03,0.02
359.9375,-2.75,49.9375,-0.01,0.02,0
359.9375,-2.75,49.9375,-0.02,0,-0.03
359.9375,-2.75,49.9375,-0.01,0,0
359.9375,-2.75,49.9375,-0.04,0,0
359.9375,-2.75,49.9375,-0.03,0,0.01
359.9375,-2.75,49.9375,-0.04,0.02,-0.03
359.9375,-2.75,49.9375,-0.02,0.03,-0.02
359.9375,-2.75,49.9375,-0.03,0.05,-0.01
359.9375,-2.75,49.9375,-0.04,0.02,0
359.9375,-2.75,49.9375,-0.03,0,-0.03
359.9375,-2.75,49.9375,-0.04,0,0
359.9375,-2.75,49.9375,-0.05,0.01,0
359.9375,-2.75,49.9375,-0.02,0.03,0
359.9375,-2.75,49.9375,0,0.03,-0.03
359.9375,-2.75,49.9375,-0.04,0.03,-0.01
359.9375,-2.75,49.9375,-0.04,0.02,-0.01
359.9375,-2.75,49.9375,-0.01,0,0
359.9375,-2.75,49.9375,-0.03,0.01,0
359.9375,-2.75,49.9375,-0.02,0,-0.01
359.9375,-2.75,49.9375,-0.02,0.02,0
359.9375,-2.75,49.9375,-0.05,0.01,0
359.9375,-2.75,49.9375,-0.01,0.01,0
359.9375,-2.75,49.9375,-0.02,0.02,-0.01
359.9375,-2.75,49.9375,-0.02,0,-0.02
359.9375,-2.75,49.9375,-0.03,0,0
359.9375,-2.75,49.9375,-0.01,0.02,-0.01
359.9375,-2.75,49.9375,-0.04,0.03,-0.02
359.9375,-2.75,49.9375,-0.02,0.05,0
359.9375,-2.75,49.9375,-0.03,0,-0.02
359.9375,-2.75,49.9375,-0.02,0.02,0
359.9375,-2.75,49.9375,-0.03,0.01,0.02
359.9375,-2.75,49.9375,-0.02,0,-0.01
359.9375,-2.75,49.9375,-0.03,0.06,-0.08
0,-2.75,49.9375,-0.02,0.03,-0.1
0,-2.8125,49.875,-0.11,0,0.13
0,-2.75,49.875,0.08,0.09,-0.16
0,-2.8125,49.875,-2.16,0.81,1.59
0.125,-2.5625,50.1875,1.55,0.32,-3.39
0.625,-2.75,51,-1.29,-1.33,-6.32
1.8125,-2.625,51.1875,-3.25,-1.61,0.69
5.1875,-0.3125,48.9375,3.87,3.07,0.05
5.6875,0.5,47.125,-2.72,-0.54,0.47
6.0625,1.6875,45.1875,-3.13,-1.55,1.71
7.125,3.125,43.625,-2.7,1.41,2.3
7.6875,3.5,42.125,-4.05,3.02,-2.49
8.125,3.25,40.25,0.81,-2.2,2.3
9.5,4.125,37.9375,-1.88,1.2,3.24
10.875,5.1875,35.5625,-1.65,1.89,-3.06
11.1875,3.5625,32.1875,0.1,-0.83,-2.69
12.25,3.6875,29.8125,-2.05,-0.27,2.7
13.0625,3.5,27.625,-4.42,4.01,0.33
12.8125,1.75,26.0625,-4.1,2.06,-1.93
12.3125,-0.5625,24.6875,-0.8,-0.22,-0.51
13.375,-1.625,22.0625,2.58,-1.59,5.41
14,-2.8125,19.75,3.18,-1.06,4.43
13.9375,-4.6875,18.5625,3.21,-1.29,3.19
12.75,-8.25,16.375,4.36,-2.54,2.85
13.4375,-8.3125,14.625,3.98,-1.32,4.46
13.5625,-8,13.375,1.69,-1.11,5.98
12.9375,-8.125,12.9375,1.5,-1.22,5.67
12.625,-7.9375,12.625,3.18,-1.57,3.49
12.5625,-7.1875,12.4375,1.11,0.46,1.06
12.375,-6.0625,12.625,-2.6,3.1,-0.48
12.25,-4.4375,11.875,-1.97,3.16,-3.89
11.9375,-3.9375,11.125,-3.58,3.37,-2.9
11.625,-3.75,9.875,-3.67,2.18,-2.29
11.75,-3.75,7.8125,-1.93,0.33,-2.64
11.6875,-4.125,6,-0.93,-0.97,-1.31
11.1875,-4.75,4.9375,-1.78,-1.17,0.24
10.75,-5.4375,4.0625,-1.44,-1.45,1.01
10.625,-6.25,3.25,0.08,-2.17,1.68
10.25,-7.125,2.8125,0.05,-1.34,2.1
10.25,-8.375,2.6875,0.6,-1.15,2
10.25,-9,3.0625,1.25,-0.86,1.49
10.25,-9.625,3.75,1.06,0.75,1.94
10.5,-10.0625,4.4375,0.99,2.17,2.11
10.5625,-10.625,5.3125,1.09,2.73,2.19
10.3125,-11.3125,6.1875,2.47,3.48,1.49
10.25,-11.9375,6.875,2.92,3.69,1.15
9.8125,-12.4375,7.4375,2.32,4.16,1.51
8.625,-13.0625,7.8125,2.4,4.22,1.53
7.9375,-13.375,7.6875,2.51,3.49,1.3
7.0625,-13.5,7.3125,2.23,3.21,1.51
6.3125,-13.375,6.8125,2.04,3.22,1.36
5.3125,-13.1875,6.125,1.66,2.17,0.94
4.25,-12.9375,5.5,1.27,1.55,0.83
3.0625,-12.5,4.8125,-0.1,0.9,0.43
1.9375,-11.875,4.125,-0.73,0.14,-0.86
0.875,-11.375,3.4375,-1.35,-0.42,-1.18
358.875,-10.375,2.4375,-1.36,-0.52,-1.93
358.125,-10.1875,2.1875,-1.88,-0.48,-2.59
357.375,-10.1875,2.1875,-1.9,-0.23,-2.33
356.5625,-10.5625,2.4375,-2.35,0.25,-2.01
355.875,-11.1875,2.875,-2.11,0.81,-1.79
355.3125,-12.0625,3.25,-1.05,2.48,0.3
354.6875,-13.1875,3.75,0,2.17,0.73
354.0625,-14.5,4.0625,1.95,2.14,0.76
352.875,-17.3125,4.1875,3.16,1.65,1.87
352.0625,-18.4375,4.125,3.73,1.5,2.19
351.375,-19.0625,3.875,3.7,1.4,2.47
350.4375,-19.375,3.5625,3.09,1.02,2.63
349.4375,-19.375,3.25,1.85,0.98,2.49
348.375,-19.0625,3,0.5,0.43,1.15
346.0625,-18.1875,2.625,-0.81,0.05,-0.07
344.9375,-17.625,2.4375,-1.27,0.07,-0.7
344,-17.125,2.3125,-1.91,0.09,-1
342.9375,-16.875,2.1875,-2.06,-0.41,-1.55
342,-16.75,2,-2.34,-0.4,-1.73
341.25,-16.8125,1.9375,-2.12,-0.65,-1.22
340.4375,-17.0625,1.875,-1.47,-0.46,-1.01
339.8125,-17.625,1.875,-0.51,-0.57,-0.3
338.6875,-18.9375,1.875,0,-0.39,0.22
338.25,-19.625,2,0.77,-0.13,0.43
337.8125,-20.3125,2.125,1.27,0.02,0.7
337.25,-20.875,2.375,1.45,0.81,1.58
336.8125,-21.3125,2.625,1.88,0.98,1.44
336.25,-21.5625,2.75,2.14,1.42,0.8
335.625,-21.6875,3,1.88,1.46,0.4
334.9375,-21.5625,3.0625,1.47,1.4,0
333.4375,-20.6875,2.75,1.05,1.19,-0.53
332.5625,-20.0625,2.4375,-0.6,0.81,-0.97
331.75,-19.375,2,-1.58,0.7,-1
330.9375,-18.75,1.5,-2.18,0.37,-1.24
330.125,-18.3125,1,-2.45,-0.02,-1.38
329.375,-18.1875,0.5,-1.58,-1.13,-1.21
327.9375,-18.375,-0.4375,-1.28,-1.35,-0.79
327.375,-18.625,-0.9375,-0.92,-1.71,-0.47
326.75,-18.9375,-1.375,-0.45,-1.95,0.36
326.3125,-19.25,-1.625,-1.01,-1.64,1.44
325.9375,-19.5625,-1.6875,-1.27,-0.59,1.73
326,-20.0625,-1.75,2.43,-2.46,-0.44
325.5625,-20.4375,-1.8125,0.99,-0.66,1.41
325,-20.4375,-1.5625,2.26,-1.52,-0.23
324.25,-20.25,-1.25,0.09,-0.41,0.23
323.8125,-19.75,-0.9375,0.3,-0.27,-0.73
323.3125,-19.25,-0.625,-0.44,-0.1,-1.23
322.75,-18.8125,-0.3125,-1.75,0.29,-1.01
322.375,-18.375,-0.1875,-1.36,-0.02,-2.05
321.9375,-18.3125,-0.0625,-2.04,0.75,-1.09
321.8125,-18.5,-0.25,-0.61,-1.07,-1.1
320.8125,-19,-0.75,-1.56,-0.6,0.57
320.625,-19.25,-1.0625,0.28,-1.38,-0.1
320.0625,-19.5,-1.1875,0.81,-1.77,-0.08
319.8125,-19.5625,-1.25,0.61,-1.71,0.65
319.6875,-19.5,-1.25,0.51,-1.46,0.76
319.25,-19.5,-1,0.75,-1.67,0.38
319.0625,-19.3125,-0.6875,0.03,-0.43,-0.07
318.5,-18.875,0.0625,-0.26,-0.29,-0.3
318.3125,-18.625,0.375,-0.47,-0.05,-0.39
318.125,-18.4375,0.625,-0.61,0.46,-0.33
317.8125,-18.375,0.75,-0.23,0.31,-0.42
317.5625,-18.25,0.75,0.18,0.21,-0.48
317.3125,-18.125,0.625,0.5,0.2,-0.06
317,-18,0.5625,0.78,0.03,-0.15
316.6875,-17.875,0.5,0.84,0.03,-0.11
316,-17.375,0.1875,0.86,-0.16,-0.18
315.6875,-17,0,0.35,-0.24,-0.16
315.375,-16.625,-0.125,0.13,-0.38,-0.3
314.9375,-16.25,-0.25,-0.11,-0.65,-0.46
314.625,-15.9375,-0.4375,-0.44,-0.79,-0.52
314.25,-15.625,-0.5,-0.78,-1.16,-0.86
313.9375,-15.4375,-0.5625,-0.94,-1.09,-0.78
313.6875,-15.3125,-0.5625,-0.9,-1.02,-0.7
313.1875,-15.375,-0.375,-0.74,-1.02,-0.73
313.125,-15.4375,-0.1875,-1.28,-0.48,0.04
313.0625,-15.625,0,-1.2,0.27,0.26
312.8125,-16,0.0625,0.15,-0.38,-0.46
312.9375,-16.1875,0.3125,-0.03,0.08,0.09
312.75,-16.4375,0.625,0.83,-0.25,-0.77
312.25,-16.75,0.9375,0.3,0.71,-0.02
77.25,-16.875,0.9375,0.82,0.26,-0.47
76.6875,-17,0.9375,0.76,-0.13,-0.53
76.4375,-16.875,0.8125,0.41,0.03,-0.38
75.875,-16.75,0.6875,-0.62,0.1,-0.04
75.125,-16.6875,0.5,-0.18,-0.74,-0.69
74.6875,-16.5,0.125,-0.37,-0.96,-0.18
74.3125,-16.3125,-0.1875,-1.49,-0.54,0.68
73.75,-16.3125,-0.5625,-0.77,-2.19,0.03
73.0625,-16.125,-0.8125,-0.75,-2.07,-0.04
72.4375,-16.1875,-0.5,-0.61,-1.84,-0.3
72,-16.25,-0.3125,-0.05,-2.28,-0.59
71.875,-16.25,-0.125,-0.05,-1.73,-0.07
71.5625,-16.25,0.125,-0.46,-1.11,0.59
71.25,-16.1875,0.375,0.31,-1.58,0.07
71.25,-15.9375,0.625,-1.24,-0.39,1.17
71.25,-15.75,0.8125,0.19,-0.95,0.23
71.125,-15.5625,1.125,-0.49,-0.39,0.67
71,-14.9375,1.75,0.02,-0.56,0.09
70.8125,-14.6875,2.1875,0.47,-0.77,-0.64
70.625,-14.3125,2.6875,-0.14,-0.08,-0.51
70.5,-13.9375,3.0625,-0.27,0.19,-1.13
70.25,-13.5625,3.1875,-0.43,0.13,-1.25
70.125,-13.125,3.1875,-0.95,0.22,-0.78
70.0625,-12.75,3.0625,-2.57,-0.01,0.99
70.125,-12.5625,2.9375,-0.61,-0.05,-0.6
70,-12.5,2.5625,-1.37,-0.86,0.61
69.6875,-12.0625,2.3125,-0.19,-2.11,0.13
69.625,-11.875,2.375,0.08,-1.94,0.01
69.5,-11.5625,2.5625,-0.26,-2.02,0.24
69.5,-11.25,2.875,-0.79,-1.61,0.37
69.5,-10.875,3.25,-1.12,-1.27,0.12
69.625,-10.4375,3.6875,-1.32,-0.89,0
69.8125,-10.0625,4.125,-1.76,-0.5,0
70,-9.75,4.5625,-1.73,-0.23,-0.25
70.125,-9.5,5,-1.27,-0.2,-0.43
70.5,-9.125,5.8125,-0.66,-0.31,-0.71
70.5625,-9.0625,6.25,-1,-0.2,-0.15
70.75,-8.9375,6.75,-0.78,-0.07,-0.13
70.9375,-8.875,7.1875,-0.63,0.11,-0.11
71.0625,-8.875,7.6875,-0.36,0.05,-0.23
71.25,-8.75,8.125,-0.08,0.35,-0.09
71.4375,-8.625,8.5,0.05,0.31,-0.17
71.5625,-8.375,8.75,-0.1,0.26,-0.07
71.75,-8.0625,8.9375,-0.38,-0.47,-0.64
71.875,-7.625,9,-0.82,-0.41,-0.83
72.3125,-6.5625,9.0625,-1.08,-0.7,-1.21
72.4375,-6.0625,9.1875,-1.82,-0.73,-1.1
72.625,-5.6875,9.25,-1.97,-1.44,-1.72
72.9375,-5.3125,9.375,-2.24,-1.37,-1.75
73.3125,-5.125,9.5,-2.03,-1.76,-2.07
73.6875,-5.0625,9.8125,-2.16,-1.61,-1.89
74.1875,-5,10.1875,-1.88,-1.57,-2.01
74.6875,-5.0625,10.625,-1.97,-1.05,-1.33
76,-5.4375,11.5625,-1.16,-0.7,-0.98
76.625,-5.75,12.0625,-0.54,-0.71,-1
77.375,-5.9375,12.5,-0.17,-0.5,-0.9
78.125,-6.0625,12.9375,-0.15,-0.16,-0.67
78.8125,-6.0625,13.375,-0.22,0.07,-0.47
79.5,-6,13.625,-0.39,0.26,-0.42
80.125,-5.8125,13.8125,-0.51,0.02,-0.54
80.75,-5.5625,13.9375,-0.87,-0.19,-0.66
81.375,-5.25,13.9375,-1.84,-0.61,-0.87
82.6875,-4.75,14.0625,-2.21,-0.6,-0.73
83.4375,-4.5625,14.0625,-1.86,-0.98,-0.89
84.125,-4.5625,14.1875,-1.77,-1.04,-0.65
84.9375,-4.5625,14.375,-1.3,-1.08,-0.72
85.8125,-4.5625,14.625,-0.97,-1.09,-0.72
86.6875,-4.625,14.9375,-0.37,-0.84,-0.75
87.6875,-4.625,15.375,-0.26,-0.53,-0.82
88.625,-4.5,15.875,-0.36,-0.2,-0.85
89.625,-4.3125,16.4375,-1,1.23,-0.98
91.5625,-4,17.5625,-0.68,1.43,-1.31
92.5625,-3.9375,18,-0.52,1.64,-1.47
93.4375,-3.875,18.375,-0.4,2.03,-1.22
94.3125,-3.875,18.5625,-0.14,1.85,-1.32
95.0625,-3.875,18.625,0.03,1.62,-1.29
95.8125,-3.8125,18.5625,0.14,1.37,-1.15
96.5,-3.75,18.3125,-0.07,0.77,-0.6
97.125,-3.6875,18.0625,-0.51,0.04,0.03
97.75,-3.5625,17.75,-0.84,-0.15,0.53
98.875,-3.375,17.25,-0.54,-0.81,0.51
99.5,-3.25,17.125,-0.49,-0.98,0.5
100.1875,-3.125,17.125,-0.3,-1.15,0.23
100.8125,-2.875,17.25,-0.43,-1.06,0.05
101.5625,-2.625,17.5,-0.69,-0.57,-0.48
102.375,-2.3125,17.875,-0.95,-0.14,-0.76
103.1875,-2,18.25,-1.14,0.18,-1.11
104.0625,-1.625,18.5625,-1.62,1.04,-1.26
105.75,-1.25,18.9375,-1.46,1.15,-1.05
106.5,-1.1875,19,-0.95,1.05,-0.89
107.375,-1.25,19,-0.3,0.88,0.03
108.125,-1.3125,19,0.26,0.58,0.19
108.8125,-1.375,18.9375,0.69,0.28,0.23
109.5,-1.3125,18.8125,1.14,0,-0.02
110.125,-1.0625,18.8125,0.74,-0.12,-0.43
110.8125,-0.625,18.75,0.11,-0.1,-0.77
111.4375,-0.0625,18.75,-1.46,0,-1.42
112.75,0.9375,18.8125,-2.65,0.01,-1.47
113.4375,1.25,18.875,-2.88,-0.05,-1.21
114.125,1.3125,18.9375,-2.72,-0.08,-0.86
114.9375,1.1875,19.0625,-1.92,0.04,0.46
115.8125,0.9375,19.1875,-0.58,0.66,0.82
116.8125,0.625,19.375,0.47,0.49,1.04
117.625,0.3125,19.6875,2.34,0.97,0.52
118.5625,0.25,19.9375,2.13,1.1,-0.05
119.375,0.5625,20.0625,1.57,1.2,-0.83
120.5625,1.875,20.3125,0.66,1.43,-1.5
121.0625,2.8125,20.1875,-1.78,1.27,-2.39
121.4375,3.75,19.875,-2.85,0.91,-2.6
121.8125,4.5,19.375,-3.48,0.21,-2.74
122.125,5,18.6875,-3.68,-0.65,-2.67
122.5,5.1875,18.0625,-2.74,-2.51,-1.12
123.0625,5.1875,17.4375,-2.48,-2.4,-0.22
123.8125,5,17,-0.66,-2.31,0.27
125.8125,4.4375,16.75,-0.4,-1.62,0.75
127,4.25,17.0625,0.08,-0.99,0.64
128.25,4.25,17.5625,0.1,-0.01,0.59
129.625,4.4375,18.125,-0.06,1.59,0
130.875,4.75,18.75,-0.22,2.27,-0.54
132,5.125,19.3125,-0.31,2.76,-1.18
133.125,5.5,19.625,-1.04,3.02,-1.95
134,5.875,19.75,-1.44,2.87,-1.71
135.0625,6.1875,19.6875,-1.51,2.41,-1.53
135.75,6.375,19.4375,-1.3,1.81,-1.38
136.875,6.3125,18.5,-0.71,0.59,-0.67
137.375,6.25,17.875,-0.62,0.09,-0.22
138,6.125,17.25,-0.36,-0.48,0.08
138.5,6.125,16.6875,-0.37,-1.04,0.81
139.125,6.1875,16.25,-0.25,-1.25,0.69
139.8125,6.3125,15.9375,-0.47,-1.16,0.68
140.5625,6.5625,15.9375,-1,-0.05,-0.7
141.5625,6.875,16.0625,-1.37,0.43,-1.12
142.5,7.25,16.25,-1.61,0.9,-1.56
144.3125,7.9375,16.6875,-1.82,1.26,-1.8
145.1875,8.125,16.875,-1.93,1.67,-1.73
146,8.25,16.875,-2,1.94,-1.29
146.8125,8.1875,16.6875,-1.68,1.74,-0.99
147.5625,8.0625,16.375,-1.13,1.3,-0.79
148.25,7.875,15.9375,-0.07,0.17,0.34
148.9375,7.75,15.4375,0.12,-0.15,0.42
149.6875,7.8125,15.0625,-0.01,-0.15,0.39
150.375,7.875,14.6875,-0.33,-0.02,0.13
151.875,8.25,14.375,-0.53,0.17,-0.33
152.6875,8.5625,14.5,-1,0.64,-0.56
153.5625,8.75,14.625,-1.55,1.22,-1.17
154.375,8.9375,14.625,-1.74,1.62,-1.2
155.125,8.9375,14.5625,-1.62,1.72,-1.16
155.875,8.875,14.375,-0.59,1.57,-0.67
156.5625,8.75,14.1875,-0.19,1.36,-0.45
157.1875,8.625,13.875,0.14,1.11,-0.26
158.4375,8.5625,13.125,0.43,0.79,-0.21
159.0625,8.6875,12.8125,0.32,0.49,0.01
159.625,8.875,12.5,0.02,0.41,0.09
160.375,9.125,12.3125,-0.15,0.46,-0.03
160.9375,9.3125,12.1875,-0.8,0.72,-0.16
161.5625,9.5625,12.0625,-0.63,0.67,-0.71
162.125,9.75,11.875,-0.81,0.65,-1.15
162.6875,10,11.625,-0.81,0.44,-1.45
163.9375,10.3125,10.9375,-0.82,0.25,-1.55
164.5625,10.4375,10.6875,-1.09,0.32,-1.43
165.1875,10.4375,10.4375,-1.47,0.51,-1.05
165.875,10.375,10.1875,-1.62,0.77,-0.26
166.625,10.1875,9.9375,-1.22,0.69,-0.04
167.3125,9.9375,9.625,-0.77,0.59,0.22
168,9.75,9.375,0.46,0.41,0.5
169.375,9.6875,8.9375,0.53,0.47,0.54
170.0625,9.8125,8.6875,0.62,0.48,0.19
170.75,10.125,8.625,-0.04,0.99,-0.26
171.5,10.4375,8.5,-0.56,1.4,-0.47
172.1875,10.75,8.375,-0.91,1.75,-0.71
172.75,11,8.1875,-0.8,1.77,-1.25
173.5,11.1875,7.9375,-0.91,2.06,-1.45
174,11.25,7.625,-0.95,1.75,-0.97
174.4375,11.3125,7.1875,-0.54,1.37,-0.95
175.25,11.25,6.0625,-0.21,0.85,-0.57
175.625,11.1875,5.5625,0.03,0.54,-0.53
176.0625,11.25,5,0.13,0.26,-0.44
176.5,11.25,4.5625,0.01,-0.1,-0.38
176.9375,11.3125,4.1875,-0.23,-0.22,-0.45
177.5,11.4375,3.875,-0.61,-0.15,-0.47
178.25,11.5625,3.625,-0.92,-0.15,-0.65
178.875,11.625,3.4375,-1.64,0.27,-1.02
180.1875,11.5,3.125,-1.27,0.19,-1.31
180.875,11.3125,3,-1.09,0.22,-1.4
181.625,11,2.875,-0.75,0.68,-1.08
182.25,10.6875,2.75,-0.61,0.8,-0.87
183,10.375,2.625,-0.66,1.05,-0.53
183.6875,10.0625,2.4375,-0.3,1.09,-0.52
184.3125,9.75,2.3125,-0.1,1.09,-0.53
185,9.5625,2.125,0.18,1.04,-0.82
185.625,9.375,2,-0.29,1.04,-1.31
186.875,9.125,1.6875,-0.64,1.12,-1.28
187.375,9,1.5,-0.96,0.97,-1.31
187.875,8.8125,1.3125,-1.15,0.71,-1.38
188.375,8.625,1.0625,-1.57,0.42,-1.01
188.8125,8.3125,0.875,-1.49,0.11,-0.95
189.3125,7.9375,0.625,-1.5,-0.03,-0.42
189.875,7.5625,0.4375,-1.18,-0.14,-0.01
190.625,7.125,0.375,-0.91,0.01,0.21
191.25,6.625,0.3125,-0.56,0.31,0.43
192.625,5.5,0.5625,-0.12,0.54,0.48
193.3125,5.125,0.75,0.28,1.36,0.57
194,4.8125,0.9375,0.37,1.65,0.47
194.5625,4.625,1.0625,0.17,1.96,0.35
195.125,4.5625,1.125,-0.28,2.15,-0.13
195.625,4.5625,1.125,-0.72,2.28,-0.1
196.0625,4.5625,1.0625,-1.02,1.9,-0.34
196.5625,4.5,0.875,-0.96,1.39,-0.33
196.875,4.4375,0.625,-0.71,1.1,-0.29
197.5,4.0625,0.125,-0.46,0.9,-0.1
197.8125,3.875,0,0.1,0.6,-0.22
198.125,3.6875,-0.125,0.31,0.85,0.05
198.5,3.5625,-0.125,0.31,1.13,0.05
198.8125,3.5,-0.0625,0.07,1.48,0.18
199.125,3.5,-0.0625,-0.14,1.84,0.18
199.375,3.5,-0.125,-0.16,1.69,-0.52
199.625,3.625,-0.3125,-0.13,1.33,-0.85
199.75,3.75,-0.6875,-0.48,0.5,-1.16
199.8125,4.0625,-1.625,-0.75,0.07,-1.2
199.875,4.1875,-2.125,-1.19,-0.18,-0.94
200,4.25,-2.4375,-1.58,-0.32,-0.69
200.0625,4.125,-2.75,-1.81,-0.52,-0.21
200.25,3.9375,-2.9375,-1.78,-0.42,0.19
200.4375,3.625,-3,-1.03,-0.4,0.57
200.6875,3.25,-3.125,-0.02,-0.27,0.7
200.9375,2.8125,-3.1875,0.46,-0.2,0.48
201.3125,2.5,-3.1875,0.75,0.06,0.32
202.125,2,-2.8125,0.82,0.58,0.23
202.5,1.8125,-2.375,0.41,1.87,0.1
202.9375,1.625,-1.875,0.15,2.73,0.19
203.25,1.4375,-1.3125,-0.16,3.52,0.45
203.375,1.25,-0.9375,0.04,4.06,0.71
203.3125,1,-0.6875,0.46,3.8,0.55
203.1875,0.875,-0.8125,0.93,3.34,0.32
202.9375,0.9375,-1.1875,0.77,2.8,0.42
202.625,1.125,-1.75,-0.19,0.61,0.39
201.9375,1.6875,-3,-0.64,0,0.49
201.625,1.9375,-3.5,-1,-0.55,0.52
201.3125,2.125,-3.8125,-1.05,-0.97,0.23
201.1875,2.125,-3.875,-0.77,-0.97,-0.09
201.125,2.0625,-3.75,-0.61,-0.74,-0.33
201.1875,1.9375,-3.4375,-0.42,-0.2,-0.48
201.3125,1.8125,-3.125,-0.4,0.88,-0.46
201.375,1.6875,-2.8125,-0.45,1.36,-0.33
201.5,1.5625,-2.625,-0.2,1.79,-0.09
201.5625,1.375,-2.6875,0.03,1.61,-0.03
201.5,1.25,-2.875,0.26,1.32,0.05
201.75,1.125,-3.125,0.55,1.03,0.19
201.6875,1.0625,-3.375,1.03,0.37,0.04
201.625,1,-3.4375,0.86,0.47,0.19
201.5625,0.9375,-3.4375,1.01,0.5,0
201.5,0.9375,-3.3125,0.84,0.7,-0.04
201.5,0.9375,-3.125,0.52,1.36,-0.08
201.5,0.9375,-2.9375,0.5,1.53,-0.52
201.3125,1,-2.875,0.55,1.53,-0.59
201.125,1,-2.9375,0.6,1.1,-0.68
200.9375,1.0625,-3.125,0.64,0.84,-0.77
200.6875,1.0625,-3.25,0.5,0.7,-0.75
200.5,1.0625,-3.375,0.46,0.43,-1.13
200.25,1.0625,-3.375,0.31,0.5,-1.2
200.0625,1,-3.375,0.2,0.63,-1.2
199.8125,0.875,-3.3125,0,0.89,-0.93
199.5625,0.625,-3.25,0.37,1.3,-0.06
199.3125,0.3125,-3.1875,0.92,1.16,0
198.75,-0.3125,-3.1875,1.24,1.11,0.14
198.4375,-0.5625,-3.25,1.61,1.02,0.31
198.125,-0.75,-3.375,1.61,0.9,0.32
197.75,-0.8125,-3.4375,1.53,0.73,0.14
197.375,-0.6875,-3.5625,1.2,0.74,0.08
197,-0.625,-3.625,0.77,0.56,-0.55
196.5625,-0.5,-3.625,0.43,0.6,-0.86
196.1875,-0.3125,-3.6875,0.1,0.66,-1.13
195.8125,-0.25,-3.6875,-0.53,0.64,-1.39
194.9375,-0.4375,-3.8125,-0.51,0.6,-1.16
194.5,-0.6875,-3.875,-0.18,0.46,-1.01
194.0625,-1.125,-3.9375,0.7,0.15,-0.5
193.625,-1.5625,-4.0625,0.9,0.17,-0.09
193.1875,-2,-4.0625,1.18,0.21,0.24
192.75,-2.375,-4.125,1.44,0.27,0.37
192.3125,-2.625,-4.0625,1.31,0.49,0.41
191.9375,-2.8125,-4.0625,1.16,0.58,0.24
191.5,-2.875,-4,0.25,0.65,-0.24
190.625,-2.9375,-4,-0.04,0.59,-0.26
190.125,-3,-4,-0.29,0.56,-0.21
189.625,-3.0625,-4.125,-0.33,0.42,-0.15
189.125,-3.3125,-4.1875,-0.22,0.19,0.23
188.5625,-3.5625,-4.3125,0.09,0.13,0.44
188,-3.875,-4.4375,0.47,-0.04,0.56
187.375,-4.1875,-4.5625,0.8,-0.21,0.63
186.875,-4.4375,-4.625,0.89,-0.05,0.83
186.375,-4.625,-4.6875,0.93,0.09,0.77
185.375,-4.6875,-4.6875,0.83,0.3,0.76
184.875,-4.6875,-4.625,0.9,0.6,0.2
184.375,-4.625,-4.625,0.93,0.71,-0.06
183.8125,-4.5,-4.625,0.7,0.91,-0.12
183.3125,-4.375,-4.6875,0.48,1.03,-0.05
182.6875,-4.25,-4.8125,0.16,0.83,0.05
182,-4.125,-5.0625,-0.03,0.57,0.08
181.375,-4,-5.4375,-0.17,0.24,0.03
180.625,-3.875,-5.8125,-0.56,-0.63,0.16
179.3125,-3.625,-6.4375,-0.7,-0.81,0.26
178.625,-3.625,-6.625,-0.74,-0.93,0.24
178,-3.6875,-6.6875,-0.63,-0.72,0.21
177.4375,-3.75,-6.6875,-0.5,-0.52,0.24
176.9375,-3.9375,-6.5625,-0.24,-0.32,0.18
176.5,-4.125,-6.375,-0.04,-0.01,0.09
176,-4.3125,-6.125,0.41,0.45,-0.23
175.5625,-4.5,-5.9375,0.36,0.73,-0.29
175.0625,-4.625,-5.6875,0.13,1.15,-0.46
174,-4.8125,-5.4375,-0.12,1.16,-0.57
173.4375,-4.875,-5.375,-0.41,1.03,-0.5
172.75,-4.9375,-5.4375,-0.53,0.79,-0.53
172.125,-5.0625,-5.5625,-0.71,0.43,-0.49
171.4375,-5.1875,-5.625,-0.62,0.2,-0.49
170.75,-5.375,-5.75,-0.54,0.15,-0.39
170.125,-5.625,-5.8125,-0.26,0.03,-0.39
169.5,-5.875,-5.875,0.18,-0.05,-0.18
168.875,-6.125,-5.875,0.23,-0.18,-0.25
167.5625,-6.5,-5.875,-0.12,-0.02,-0.09
166.875,-6.5,-5.875,-0.46,-0.13,-0.32
166.25,-6.5625,-5.875,-1,0.03,-0.07
165.625,-6.5625,-5.8125,-1.09,0.15,-0.12
165.0625,-6.625,-5.8125,-1.02,0.48,0
164.5,-6.75,-5.8125,-0.6,0.54,0
163.875,-6.9375,-5.8125,0.17,0.51,-0.35
163.25,-6.9375,-5.875,0.41,0.64,-0.28
162.625,-6.875,-6,0.72,0.53,-1.17
161.3125,-6.1875,-6.4375,0.27,0.39,-1.55
160.6875,-5.75,-6.6875,-0.36,0.35,-1.93
160.0625,-5.3125,-7,-1.7,0.19,-2.34
159.375,-5.0625,-7.25,-1.92,-0.27,-2.76
158.625,-4.9375,-7.4375,-2.33,-0.45,-2.58
158.0625,-5,-7.6875,-2.64,-0.61,-2.37
157.375,-5.375,-7.8125,-2.41,-0.64,-1.56
156.75,-5.875,-7.875,-2.07,-0.65,-0.92
156.25,-6.5,-7.875,-0.12,-0.58,0.6
155.1875,-7.875,-7.6875,0.42,-0.48,0.92
154.75,-8.375,-7.5625,0.72,-0.16,1.27
154.3125,-8.75,-7.25,1.01,-0.04,1.3
153.9375,-8.875,-6.9375,0.94,0.53,0.91
153.5,-8.9375,-6.5625,0.47,1.01,0.66
153.125,-8.8125,-6.25,0.21,1.24,0.07
152.625,-8.6875,-6,-0.18,1.54,-0.4
152.0625,-8.5625,-5.875,-0.98,1.49,-1.22
151.5,-8.5,-5.8125,-1.01,1.18,-1.24
150.125,-8.5625,-6.25,-1.11,0.8,-0.98
149.375,-8.6875,-6.625,-1.56,0.23,0.18
148.6875,-8.8125,-7.0625,-1.37,-0.34,0.53
148.0625,-9,-7.625,-0.97,-0.97,0.74
147.4375,-9.1875,-8.0625,-0.01,-1.8,0.84
146.9375,-9.375,-8.4375,1.16,-2.44,0.2
146.4375,-9.5,-8.375,1.43,-2.37,0.03
146.0625,-9.5,-8.0625,0.97,-1.74,0.27
145.75,-9.375,-7.5625,-0.56,0.6,0.05
145.0625,-9.125,-6.375,-0.96,1.23,-0.19
144.625,-9.125,-6,-0.88,1.52,-0.61
144.125,-9.125,-5.875,-1.02,1.74,-0.43
143.5625,-9.1875,-5.9375,-0.6,1.44,-0.4
142.9375,-9.3125,-6.1875,0.04,0.75,-0.58
142.3125,-9.375,-6.4375,0.45,0.26,-0.56
141.5625,-9.375,-6.6875,0.1,-0.03,0.4
140.875,-9.3125,-7,-0.05,-0.66,0.51
140.25,-9.25,-7.25,-0.18,-1.03,0.31
139.0625,-8.9375,-7.6875,-0.31,-1.35,0.09
138.5,-8.75,-7.875,-0.49,-1.53,-0.1
138,-8.625,-7.875,-0.5,-1.56,-0.51
137.5625,-8.5,-7.6875,-0.8,-1.01,-1.02
137.125,-8.5,-7.4375,-1.04,-0.57,-1.17
136.8125,-8.5625,-7.125,-1.1,-0.1,-1.29
136.3125,-8.75,-6.875,-1.22,0.39,-1.05
135.875,-9.0625,-6.6875,-0.54,0.79,-0.79
135.4375,-9.4375,-6.625,0.35,0.77,-0.1
134.4375,-10.1875,-6.75,0.73,0.7,0.25
133.875,-10.4375,-6.8125,1.16,0.53,0.65
133.375,-10.5,-6.9375,0.96,0.56,0.77
132.8125,-10.4375,-7.0625,0.9,0.45,0.53
132.3125,-10.25,-7.1875,-0.12,0.49,0.27
131.75,-10.0625,-7.375,-0.48,0.41,0.1
131.1875,-9.875,-7.5625,-0.72,0.15,-0.15
130.625,-9.75,-7.75,-0.9,-0.5,-0.53
130.0625,-9.6875,-7.9375,-1.01,-0.58,-0.34
129,-9.8125,-8.125,-1.02,-0.52,-0.09
128.5,-9.9375,-8.125,-1.09,-0.36,0.25
128.0625,-10.1875,-8,-0.71,-0.22,0.59
127.625,-10.5,-7.9375,-0.48,-0.03,0.89
127.1875,-10.75,-7.8125,-0.13,0.02,1.03
126.8125,-11.0625,-7.6875,0.5,-0.04,0.86
126.3125,-11.25,-7.5,1.04,0.3,0.67
125.9375,-11.3125,-7.1875,0.99,0.89,0.16
125.125,-11.1875,-6.6875,0.35,1.39,-0.35
124.6875,-11.0625,-6.5,-0.12,1.57,-0.52
124.1875,-10.875,-6.5,-0.46,1.57,-0.66
123.6875,-10.75,-6.5625,-0.66,1.35,-0.82
123.0625,-10.75,-6.8125,-0.82,0.66,-0.52
122.375,-10.75,-7.125,-0.41,-0.31,0.15
121.75,-10.8125,-7.4375,-0.03,-0.97,0.18
121.0625,-10.9375,-7.8125,0.35,-1.6,0.31
119.9375,-11.0625,-8.125,0.47,-1.72,0.09
119.4375,-11.0625,-8.0625,0.22,-1.6,0.01
119.0625,-10.9375,-7.8125,-0.08,-1.35,-0.1
118.75,-10.9375,-7.5,-0.4,-0.62,-0.72
118.4375,-10.9375,-7.125,-0.48,-0.22,-1.05
118.0625,-11,-6.6875,-0.51,0.27,-1.25
117.75,-11.125,-6.375,-0.23,0.98,-1.01
117.3125,-11.3125,-6.125,0.01,0.85,-0.86
116.875,-11.5625,-6.125,0.44,0.54,-0.76
115.9375,-12,-6.375,0.98,0.07,-0.4
115.4375,-12.1875,-6.5625,1.19,-0.08,-0.26
114.9375,-12.3125,-6.6875,1.41,-0.16,-0.26
114.5,-12.3125,-6.6875,1.22,0.14,-0.05
114,-12.3125,-6.625,0.56,0.78,0.12
113.4375,-12.1875,-6.5625,-0.08,1.15,0.22
112.25,-11.9375,-6.8125,-0.29,0.93,0.13
111.5625,-11.8125,-7.125,-0.49,0.29,0.24
110.875,-11.625,-7.5,-0.72,-0.21,0.5
110.25,-11.5,-7.9375,-0.71,-0.76,0.53
109.625,-11.375,-8.3125,-0.74,-1.35,0.78
109,-11.375,-8.5,-0.54,-1.56,0.69
108.4375,-11.3125,-8.5,-0.43,-1.48,0.66
108,-11.3125,-8.375,-0.14,-0.59,0.31
107.5625,-11.375,-8.125,-0.1,-0.31,0.14
106.875,-11.3125,-7.5625,-0.17,0.01,-0.03
106.5,-11.25,-7.3125,-0.16,0.25,-0.24
106.125,-11.1875,-7.0625,-0.25,0.36,-0.72
105.75,-11.0625,-6.9375,-0.54,0.44,-0.59
105.3125,-11,-6.875,-0.36,0.11,-0.82
104.875,-10.9375,-6.875,-0.59,-0.11,-0.54
104.5,-10.9375,-6.875,-0.35,-0.43,-0.51
104.0625,-10.875,-6.9375,-0.33,-0.5,-0.43
103.25,-10.9375,-6.875,-0.18,-0.64,-0.41
102.875,-10.9375,-6.8125,-0.19,-0.63,-0.41
102.5625,-10.9375,-6.6875,-0.25,-0.48,-0.36
102.25,-10.875,-6.5625,-0.29,-0.42,-0.33
101.9375,-10.875,-6.4375,-0.25,-0.43,-0.51
101.625,-10.875,-6.1875,-0.21,-0.41,-0.64
101.375,-10.9375,-6,-0.41,-0.09,-0.62
101.0625,-10.9375,-5.75,-0.29,0,-0.8
100.8125,-11,-5.5625,-0.23,0.12,-0.82
100.3125,-11.125,-5.125,-0.15,0.21,-0.7
100.0625,-11.25,-5,-0.14,0.27,-0.51
99.75,-11.3125,-4.9375,0.04,0.11,-0.3
99.4375,-11.375,-4.9375,0.19,-0.09,-0.31
99.1875,-11.3125,-4.9375,0.02,-0.09,-0.05
98.9375,-11.3125,-5,0.25,-0.51,-0.12
98.625,-11.25,-5,0.09,-0.55,-0.05
98.3125,-11.125,-5,-0.02,-0.46,0
98.0625,-11,-4.9375,-0.06,-0.35,-0.25
97.625,-10.8125,-4.75,-0.04,-0.25,-0.38
97.4375,-10.75,-4.625,0.05,-0.18,-0.56
97.25,-10.625,-4.4375,-0.06,0.01,-0.55
97.0625,-10.5625,-4.3125,-0.13,0.17,-0.53
96.875,-10.5625,-4.25,-0.11,0.01,-0.56
96.6875,-10.5,-4.25,-0.04,-0.13,-0.56
96.4375,-10.5,-4.3125,0.05,-0.51,-0.42
96.1875,-10.5625,-4.3125,0.15,-0.58,-0.36
96,-10.625,-4.3125,0.19,-0.52,-0.04
95.625,-10.75,-4.125,0.08,-0.2,0.49
95.4375,-10.8125,-4,-0.1,0,0.84
95.1875,-10.875,-3.875,0.04,0.01,0.89
94.9375,-10.875,-3.8125,0.34,-0.21,0.7
94.75,-10.875,-3.8125,0.62,-0.46,0.47
94.5625,-10.75,-3.8125,0.69,-0.59,0.25
94.375,-10.5625,-3.8125,0.77,-0.74,-0.2
94.0625,-10.3125,-3.8125,0.69,-0.81,-0.64
93.875,-9.9375,-3.75,-0.98,-0.26,-1.15
93.625,-9.3125,-3.625,-1.41,-0.2,-1.25
93.4375,-9.125,-3.5625,-1.74,-0.29,-1.24
93.3125,-9.0625,-3.6875,-1.55,-0.53,-1.1
93.1875,-9.0625,-3.875,-1.41,-0.83,-0.74
93,-9.1875,-4.125,-1.11,-1.27,-0.46
92.9375,-9.3125,-4.375,-0.65,-1.91,0.05
92.875,-9.4375,-4.625,-0.43,-2.2,0.02
92.875,-9.5625,-4.6875,-0.48,-2.22,0.06
93,-9.625,-4.625,-0.66,-1.79,-0.93
93.1875,-9.625,-4.4375,-1.12,-1.37,-1.22
93.6875,-9.5,-3.8125,-1.68,-0.94,-1.47
94.0625,-9.4375,-3.5,-2.42,-0.61,-1.46
94.375,-9.375,-3.3125,-3.21,-0.15,-1.1
94.6875,-9.4375,-3.25,-3.26,-0.42,-0.89
94.9375,-9.625,-3.4375,-3.02,-0.84,-0.51
95.25,-9.875,-3.75,-2.1,-2.06,0.25
95.5625,-10.25,-4.1875,-1.92,-2.54,0.81
95.9375,-10.5625,-4.5625,-1.4,-2.98,1.61
96.5,-10.8125,-4.875,-1.45,-2.74,2.25
97.625,-11.25,-4.75,-1.5,-2.09,2.46
98.375,-11.4375,-4.25,-1.3,-1.59,2.3
99.125,-11.625,-3.5625,-1.27,-0.88,2.22
99.9375,-11.75,-2.8125,-0.73,0.5,1.73
100.6875,-11.8125,-2,-0.39,0.93,1.46
101.4375,-11.875,-1.1875,-0.27,1.5,1.39
102.375,-11.875,-0.5625,0.12,2.01,1.06
103,-11.8125,-0.125,0.28,1.8,0.99
104,-11.5,0.1875,0.17,1.65,1.26
104.4375,-11.25,0.25,0.19,0.93,1.63
104.75,-11.0625,0.1875,0.27,0.65,1.83
105.0625,-10.8125,0.125,0.48,0.32,1.89
105.375,-10.5625,0.1875,0.69,0.04,1.89
105.6875,-10.3125,0.3125,0.78,0.16,1.98
106,-9.9375,0.625,0.6,0.39,1.97
106.4375,-9.5,0.9375,0.71,0.48,1.59
106.75,-9.0625,1.3125,0.62,1.07,0.54
107.375,-8.25,2.1875,0.5,1.36,0.39
107.5625,-7.875,2.5625,0.34,1.51,0.31
107.75,-7.5,2.8125,0.27,1.57,0.2
107.875,-7.1875,3.0625,0.31,1.38,0.05
107.9375,-6.9375,3.1875,0.27,1.29,0.12
108.0625,-6.75,3.3125,0.27,1.13,0.24
108.125,-6.5625,3.4375,0.02,0.82,0.94
108.25,-6.4375,3.5,0.09,0.65,1.28
108.3125,-6.375,3.6875,0.51,0.45,1.79
108.5,-6.25,4.3125,1.08,0.44,2.01
108.625,-6.125,4.8125,1.23,0.6,2
108.75,-5.9375,5.375,1.35,0.8,1.88
108.875,-5.5625,6,1.14,1.22,1.78
109.0625,-5.1875,6.5625,0.87,1.79,1.28
109.125,-4.75,7.1875,0.63,2.04,1.07
109.25,-4.3125,7.8125,0.46,2.26,0.77
109.3125,-3.875,8.375,0.24,2.55,0.35
109.3125,-3.5,8.9375,0.24,2.77,0.07
109.3125,-3.1875,9.4375,0.37,2.86,0.02
109.1875,-2.8125,10.5,0.85,2.82,0.14
109,-2.625,11,1.06,2.95,0.3
108.875,-2.5,11.5,1.2,3,0.41
108.625,-2.25,11.9375,1.33,2.96,0.4
108.375,-1.9375,12.3125,1.46,2.8,0.11
108.0625,-1.5625,12.75,1.31,2.64,-0.13
107.75,-1.0625,13.125,0.99,2.64,-0.36
107.375,-0.625,13.5,0.3,2.42,-1.11
106.5,0.1875,14.1875,0.21,2.32,-1.43
106,0.625,14.5625,0.06,2.28,-1.59
105.5,1,14.875,0.1,1.9,-2.51
105.0625,1.4375,15.125,-0.46,1.86,-2.62
104.5625,1.875,15.3125,-0.78,1.75,-2.74
104.125,2.25,15.4375,-0.6,1.26,-3.59
103.75,2.625,15.625,-1.55,1.49,-3.31
103.25,2.8125,15.8125,-1.47,1.3,-3.33
102.8125,2.8125,16,-0.8,1.12,-3.33
102,2.6875,16.25,0.08,1.04,-3.25
101.5625,2.5625,16.4375,0.5,1.13,-3.2
101.125,2.5625,16.5625,0.8,1.29,-3.16
100.625,2.5,16.75,1.15,1.3,-3.34
100.0625,2.625,16.875,0.7,1.58,-2.96
99.4375,2.8125,16.8125,0.54,1.55,-3.04
98.6875,3,16.8125,0.32,1.34,-3.29
97.875,3.3125,16.625,-0.7,0.69,-3.84
97.0625,3.625,16.375,-1.36,0.43,-3.74
95.375,4.3125,15.5,-1.55,-0.03,-3.94
94.5625,4.4375,15.125,-1.77,-0.75,-4.07
93.8125,4.4375,14.75,-1.45,-1.06,-4.23
93.125,4.3125,14.5,-1.29,-1.13,-4.02
92.5,4.0625,14.375,-1,-1.05,-3.82
91.9375,3.75,14.3125,-0.42,-0.54,-3.34
91.4375,3.375,14.3125,0.09,-0.35,-3.25
90.875,2.9375,14.3125,0.62,0.32,-2.93
90.375,2.5625,14.25,0.79,0.79,-2.46
89.125,1.875,14,0.71,1,-2.14
88.375,1.625,13.6875,0.51,1.19,-1.73
87.5625,1.4375,13.3125,0.49,0.72,-1.66
86.6875,1.3125,12.75,0.33,0.37,-1.74
85.75,1.375,12.0625,-0.2,0.11,-1.74
84.875,1.5,11.375,-0.91,-0.11,-1.68
83.9375,1.5625,10.625,-1.98,-0.65,-1.82
83.0625,1.625,9.8125,-2.3,-1,-1.86
82.25,1.5,9,-2.17,-1.8,-1.81
80.8125,0.9375,7.5625,-1.39,-2.46,-1.66
80.3125,0.5625,7.0625,-1.47,-2.31,-1.06
79.8125,0.1875,6.6875,-1.72,-1.94,-0.38
79.4375,-0.1875,6.375,-1.43,-1.85,-0.28
79.0625,-0.5625,6.1875,-1.35,-1.11,0.09
78.8125,-0.9375,5.9375,-0.85,-1.08,-0.15
78.5625,-1.3125,5.6875,-0.24,-1.13,-0.56
78.25,-1.625,5.4375,0.33,-1.08,-1.3
78.0625,-1.75,5.1875,-0.93,-0.06,-0.97
77.625,-1.75,4.75,-1.35,0.22,-1.03
77.375,-1.875,4.4375,-1.6,0.22,-1.46
77.0625,-1.9375,3.875,-1.32,-0.1,-1.82
76.75,-2.1875,3.1875,-0.78,-0.85,-2.38
76.4375,-2.375,2.4375,-0.66,-1.34,-2.38
76.125,-2.5625,1.6875,-0.98,-1.75,-1.82
75.8125,-2.875,1.125,-1.29,-1.86,-1.39
75.5,-3.1875,0.6875,-1.52,-1.75,-0.96
75.25,-3.625,0.3125,-1.89,-0.71,0.69
74.9375,-4.125,0,-1.38,-0.55,0.89
74.5625,-5.125,-0.8125,-0.52,-0.75,0.67
74.3125,-5.5,-1.5,1.34,-1.62,-0.52
74.25,-5.6875,-2.1875,1.3,-1.65,-0.57
74.125,-5.75,-2.8125,0.69,-1.54,-0.45
74.0625,-5.625,-3.3125,-0.4,-1.08,-0.09
74.0625,-5.5,-3.6875,-1.94,-0.19,0.23
73.9375,-5.5,-4.0625,-2.59,0.14,0.58
73.875,-5.625,-4.5625,-2.15,0.1,1.03
73.875,-5.875,-5.3125,-0.31,-1.14,1.23
73.625,-6.625,-7.25,0.81,-2.02,1.25
73.625,-6.875,-8.3125,1.5,-2.84,1.34
73.625,-6.875,-9.0625,0.41,-2.8,2.44
73.8125,-6.6875,-9.5,-0.41,-2.35,2.71
74,-6.5,-9.6875,-1.16,-1.84,2.73
74.1875,-6.25,-9.5625,-1.73,-1.3,2.57
74.5625,-6.125,-9.375,-1.7,-0.22,1.85
74.8125,-6.0625,-9.1875,-0.73,0.03,0.82
75.0625,-6,-9.0625,-0.3,-0.13,0.42
75.5625,-5.75,-9.25,-0.65,-0.61,0.34
75.75,-5.5625,-9.4375,-1.01,-0.95,0.34
76,-5.3125,-9.5625,-1.58,-1.08,0.53
76.3125,-5.1875,-9.625,-1.44,-1.31,0.19
76.6875,-5.125,-9.625,-1.24,-1.11,-0.06
77.125,-5.25,-9.4375,-0.75,-0.88,-0.37
77.5625,-5.5,-9.0625,-0.39,-0.32,-0.31
78,-5.8125,-8.5625,0.53,0.82,-0.13
78.4375,-6.125,-8.0625,0.96,2.15,0.32
79.0625,-6.5,-7.375,0.9,2.61,0.59
79.1875,-6.4375,-7.375,0.67,2.29,0.77
79.3125,-6.125,-7.8125,0.7,1.63,0.42
79.375,-5.625,-8.5,0.29,0.99,0.25
79.3125,-5.0625,-9.25,-0.22,0.06,0.14
79.25,-4.5,-10.0625,-1.4,-1.12,0.08
79.25,-3.9375,-10.8125,-2.07,-1.67,0.3
79.1875,-3.5,-11.4375,-2.67,-2.11,0.67
79.1875,-3.1875,-11.9375,-2.06,-2.88,0.89
79.5,-3.1875,-12.5,-1.34,-3.17,0.61
79.875,-3.3125,-12.5,-0.92,-3.04,0.47
80.4375,-3.3125,-12.375,-1.32,-2.29,0.31
81.0625,-3.3125,-12.125,-1.52,-1.74,0.01
81.875,-3.3125,-11.75,-1.99,-0.93,-0.04
82.625,-3.375,-11.3125,-1.96,-0.39,-0.4
83.4375,-3.625,-10.875,-1.38,0.6,-0.65
84.1875,-4,-10.375,-0.16,1.22,-0.64
84.9375,-4.4375,-10,-0.04,1.71,-0.08
86.1875,-5.25,-9.5,0.93,1.57,0.02
86.75,-5.5625,-9.5,0.85,1.62,0.46
87.25,-5.625,-9.625,0.68,1.46,0.78
87.6875,-5.625,-10,0.6,0.88,0.75
88.125,-5.4375,-10.4375,0.19,-0.18,0.7
88.5,-5.0625,-11,0.05,-0.87,0.27
89,-4.6875,-11.5,-0.38,-1.28,0.06
89.5,-4.1875,-11.9375,-1.08,-1.82,-0.76
90.0625,-3.8125,-12.25,-1.71,-1.85,-1.52
91.3125,-3.375,-12.3125,-1.99,-1.64,-1.83
92.0625,-3.4375,-12.0625,-2.11,-1.11,-1.97
92.75,-3.6875,-11.75,-2.22,-0.52,-1.6
93.5,-4.125,-11.375,-2.17,0.07,-1.02
94.1875,-4.75,-11,-1.71,0.39,-0.57
94.875,-5.5,-10.6875,-0.31,1.01,0.48
95.5625,-6.3125,-10.4375,0.93,1,0.49
96.1875,-7.125,-10.25,2.21,1.34,0.72
96.8125,-7.6875,-10.0625,2.05,1.5,0.55
97.9375,-8.0625,-9.875,1.43,1.53,0.48
98.5625,-7.875,-9.9375,0.62,1.39,0.38
99.0625,-7.5,-10.1875,-0.48,0.4,-0.49
99.375,-7.0625,-10.5625,1.59,0,0
99.75,-6.6875,-11,-1.6,-0.44,-0.74
100.125,-6.375,-11.375,-2.01,-0.96,-0.77
100.5625,-6.1875,-11.8125,-1.92,-1.66,-0.89
101.0625,-6.1875,-12.125,-1.91,-1.74,-0.58
101.5625,0,0,-1.26,-1.44,0.12
102.25,0,0,-0.51,-0.8,0.84
102.9375,-7.125,3.8125,0.34,-0.59,0.75
103.875,-7.625,-12,1.01,-0.26,0.6
105.5,-8.5625,-11.375,1.44,0.23,0.5
106.375,-8.875,-10.9375,1.62,1.15,0
107.25,-8.9375,-10.5625,1.37,1.64,-0.4
108.125,-8.875,-10.3125,0.93,2.06,-0.73
108.9375,-8.625,-10.1875,-0.11,2.2,0
109.625,-8.375,-10.1875,-0.63,2.16,0
110.1875,-8.1875,-10.4375,-0.64,1.31,-0.25
110.8125,-8.0625,-10.875,-0.08,0.29,0.98
111.5625,-8,-11.4375,0.32,-0.11,1.64
112.0625,-8.125,-12.0625,1.17,-0.65,1.96
113.125,-8.3125,-13.3125,1.62,0,0
113.6875,-8.25,-13.625,2.28,-1.29,1.97
114.375,-7.8125,-13.5,2.14,-1.04,1.51
115.125,-7.25,-13.125,1.55,-0.53,1.05
115.9375,-6.5625,-12.6875,0.6,0.01,0.58
116.625,0,0,-0.6,0.95,-0.82
117.1875,-5.25,-11.875,-1.14,1.04,-1.56
118.125,-4.8125,-11.75,-1.89,0.93,-2.22
118.625,0,0,-1.75,0.62,-1.93
119.625,-4.75,-12.1875,-1.33,0.26,-1.34
120,-5.1875,-12.4375,-0.49,-0.28,-0.93
120.5625,-5.75,-12.5625,1.37,-0.78,-0.1
121.1875,-6.3125,-12.5,2.23,-0.61,0.32
121.8125,-6.875,-12.1875,2.83,0,0
122.5,-7.25,-11.6875,3.42,0.02,0.7
123.1875,-7.5,-11.0625,3.62,1.32,0.48
123.875,-7.625,-10.3125,3.62,1.93,-0.06
124.5,-7.625,-9.5625,3.43,2.65,-0.56
125.0625,0,0,2.55,4.03,-1.67
125.8125,-7.4375,-8.1875,2.1,4.46,-1.4
125.9375,-7.5625,-8.1875,2.19,4.37,-1.34
125.9375,-7.75,-8.375,2.92,3.47,-0.8
125.875,-7.9375,-8.8125,3.68,2.74,0
125.75,-8.125,-9.3125,4.01,0,0
125.5625,-8.1875,-9.875,4.57,1.34,-0.24
125.375,-8.125,-10.375,4.19,0.54,0.21
125.125,-7.875,-10.75,3.81,0.13,0.13
125,0,0,3.17,0,0
124.8125,0,0,2.66,-0.27,-0.23
124.6875,-7,-11.125,1.62,-0.2,-0.68
124.625,-6.9375,-11,1.2,0.36,-1.13
124.5,0,0,1.48,1.22,-0.98
124.25,-7.75,-10.125,1.9,1.63,-0.64
124.0625,-8.375,-9.8125,2.59,1.94,-0.35
123.8125,-8.9375,-9.5625,3.24,2.26,-0.02
123.5,-9.5,-9.4375,4.25,2.58,0.63
123.125,-9.875,-9.375,4.55,2.65,0.94
122.6875,-10.0625,-9.5,4.68,2.57,1.03
122.1875,-10,-9.625,4.54,2.37,1.03
121.6875,-9.8125,-9.8125,3.52,2.06,0.68
121.0625,-9.4375,-10,2.04,1.77,0.17
119.6875,-8.8125,-10.25,1.4,1.7,-0.07
118.9375,-8.625,-10.3125,0.68,1.43,-0.14
118.1875,-8.5625,-10.375,0.45,1.55,-0.03
117.375,-8.6875,-10.4375,0.43,1.56,0.31
116.5625,-8.9375,-10.5,1.42,0,0
115.75,-9.25,-10.625,2.01,1.19,1.05
114.875,-9.5,-10.6875,2.53,1.01,1.26
114.0625,-9.6875,-10.6875,2.86,0.97,1.43
113.25,-9.625,-10.6875,2.31,1.36,1.33
112.4375,-9.4375,-10.5,1.78,1.64,1.21
110.625,-8.8125,-9.9375,1.35,1.8,0.82
109.6875,-8.375,-9.75,0.32,2.07,0.29
108.6875,-7.9375,-9.5625,-0.2,2.1,0.12
107.6875,-7.5625,-9.5625,1.87,0,0
106.625,-7.25,-9.6875,1.64,0,0
105.5625,-7,-9.875,-0.91,1.09,0.41
104.4375,-6.875,-10.125,-0.94,0.86,0.87
103.375,-6.8125,-10.375,1.86,0,0
102.3125,-6.8125,-10.5625,0.01,0.05,0
101.25,0,0,0.04,0.11,0
100.3125,-6.625,-10.5,0.28,0.1,1.93
99.25,-6.4375,-10.375,0.43,0.16,0
98.375,0,0,-0.04,0.95,1.49
97.5625,0,0,-0.07,1.11,1.06
96.6875,-5.375,-9.625,-0.46,1.45,0.92
95.0625,-4.375,-9.0625,-0.63,1.79,0.35
94.1875,-4,-8.875,-0.71,1.85,0.17
93.1875,-3.625,-8.625,-0.57,1.75,0
92.25,-3.25,-8.5,-0.56,1.67,0
91.1875,-2.875,-8.4375,-1.05,1.53,0.09
90,-2.5,-8.4375,-1.31,1.35,0.36
88.9375,-2.1875,-8.5,-1.46,1.07,0.57
87.8125,-1.875,-8.625,1.48,0,0
86.75,-1.5,-8.8125,1.51,0,0
85.6875,-1.125,-8.9375,-1.18,-0.79,0.41
84.6875,-0.75,-9,-1.28,-1.19,0.36
83.75,-0.3125,-9.0625,-1.77,-1.45,0.3
82.9375,0,-8.875,0.45,0,0
82.125,0.3125,-8.5625,0.38,0,0
81.375,0.5,-8.1875,-2.1,-0.87,0.09
80.6875,0.6875,-7.6875,-1.6,-0.35,-0.2
80.0625,0.75,-7.1875,-1.38,-0.08,-0.39
79.4375,0.875,0,1.47,0,0
78.8125,1,0,-0.96,0.43,-0.8
78.1875,1.25,-6,-1.13,0.42,-0.83
77.625,1.5625,-5.8125,-1.19,0.14,-1.03
76.9375,1.875,-5.75,-1.88,-0.24,-0.78
75.6875,2.625,-5.875,-2.04,-0.55,1.88
75.0625,3,-5.9375,-2.39,-0.78,-0.5
74.4375,3.25,-5.9375,-2.46,-0.97,-0.39
73.875,3.4375,-5.875,-2.1,-1.13,-0.28
73.375,3.5,-5.6875,-1.85,-1.13,-0.15
72.875,3.5625,-5.5,-1.48,-1.03,-0.03
72.4375,3.5625,-5.25,-1.13,-0.92,0.02
72,3.625,-4.9375,-0.63,-0.87,-0.05
71.625,3.8125,-4.6875,-0.64,-1,-0.56
70.875,4.5,-4.375,-1.1,-1.01,-0.68
70.5625,4.875,-4.25,-2.1,-0.98,-0.82
70.25,5.1875,-4.0625,-2.67,-0.9,-0.7
69.9375,5.375,-3.875,-2.93,-0.77,-0.44
69.625,5.375,-3.625,-2.46,-0.81,0.17
69.3125,5.1875,-3.375,-1.7,-0.89,0.44
69,4.875,-3.1875,-0.91,-1.02,0.59
68.6875,4.625,-3,-0.15,-1.14,0.82
68.4375,4.5,-2.75,0.66,-1.56,0.63
68.3125,4.5,-2.5,0.24,-1.38,0.47
68.125,5.1875,-1.75,-0.32,-1.25,0.23
68.1875,5.625,-1.3125,-1.13,-0.97,-0.83
68.25,6.0625,-0.8125,-1.57,-0.78,-1.36
68.3125,6.4375,-0.1875,-2.24,-0.26,-1.45
68.4375,6.625,0.3125,-2.55,0.23,-1.46
68.5,6.5625,0.9375,-2.58,0.77,-0.89
68.5,6.3125,1.5625,-1.83,0.82,-0.7
68.5625,5.875,2,0.04,0.45,0.9
68.5625,5.4375,2.4375,0.36,0.32,1.44
68.4375,4.8125,2.9375,0.52,0.14,1.86
68.4375,4.8125,3.125,0.82,-0.26,1.74
68.375,5.0625,3.375,-0.02,-0.58,1.42
68.3125,5.5,3.625,-0.61,-0.63,0.9
68.3125,6.125,3.9375,-1.29,-0.58,0.4
68.3125,6.75,4.375,-2.14,-0.37,0.11
68.3125,7.25,4.875,-2.95,-0.18,-0.55
68.375,7.625,5.375,-3.05,-0.21,-0.76
68.4375,7.8125,5.875,-2.29,-0.14,-0.72
68.75,7.6875,6.8125,-1.74,-0.23,-0.65
68.9375,7.4375,7.25,-1.35,-0.17,-0.38
69.125,7.1875,7.625,-0.87,-0.11,-0.08
69.375,6.9375,8.0625,0.02,-0.31,-0.01
69.625,6.75,8.5,0.14,-0.17,0.06
69.875,6.6875,9,0.07,0.11,0.01
70.125,6.75,9.5625,-0.08,0.38,-0.26
70.3125,6.875,10.0625,-1.19,0.84,-0.43
70.5,7.125,10.5625,-2.03,0.61,-0.88
70.6875,7.5,11.125,-2.4,0.35,-0.81
70.6875,7.625,11.1875,-2.37,-0.84,-1.03
70.75,7.625,11.25,-2.27,-1.42,-1.1
70.875,7.625,11.25,-2.3,-1.75,-0.95
71.125,7.625,11.25,-2.31,-1.97,-0.43
71.5,7.5,11.4375,-1.95,-1.82,-0.37
72,7.3125,11.875,-1.77,-1.64,-0.3
72.625,7.125,12.375,-1.37,-1.27,-0.29
73.3125,7,13,-1.05,0.09,-0.27
74.8125,6.8125,14.375,-1.01,0.49,-0.39
75.5625,6.75,15.0625,-0.95,0.78,-0.61
76.3125,6.8125,15.625,-1.26,1.3,-0.64
77,6.9375,16.125,-1.38,1.34,-0.65
77.6875,7,16.4375,-1.31,1.23,-0.72
78.3125,7.0625,16.6875,-1.18,1.04,-0.83
78.9375,7.0625,16.9375,-1,0.69,-0.98
79.5625,7.0625,17.1875,-1.06,0.62,-0.85
80.25,7.0625,17.4375,-0.91,0.52,-0.84
81.5625,6.9375,18.0625,-0.94,0.6,-0.76
82.25,6.875,18.375,-0.79,0.6,-0.74
82.875,6.875,18.6875,-0.73,0.59,-0.68
83.5,6.875,18.9375,-0.87,0.42,-0.69
84.125,6.9375,19.125,-0.81,0.08,-1.01
84.75,7.0625,19.3125,-1.02,-0.07,-1.21
85.3125,7.3125,19.4375,-1.39,-0.19,-1.31
86,7.5625,19.5625,-1.71,-0.57,-2.02
86.6875,7.8125,19.75,-2.33,-0.65,-2.06
88.125,8.25,20.0625,-2.06,-0.92,-2.5
89,8.375,20.3125,-2.36,-0.5,-2.22
89.9375,8.4375,20.5625,-2.08,-0.34,-2.23
91,8.4375,20.875,-1.93,-0.05,-2.04
92.0625,8.3125,21.1875,-1.49,0.52,-1.4
93.125,8.25,21.4375,-1.04,0.69,-1.25
94.3125,8.125,21.6875,-0.75,0.87,-0.92
95.4375,8,21.875,0.44,0.92,-1.01
96.5,7.9375,22,0.56,0.91,-1.14
98.5,8.1875,22.1875,0.32,1.01,-1.09
99.4375,8.5,22.25,-0.17,1.21,-0.96
100.3125,8.875,22.25,-0.47,0.96,-1.6
101.0625,9.25,22.125,-0.96,0.91,-1.61
101.875,9.625,22,-1.18,0.69,-1.7
102.625,9.9375,21.75,-1.39,0.41,-1.71
103.5,10.125,21.5,-1.45,0.12,-1.25
104.375,10.25,21.25,-0.73,-0.04,-0.81
105.25,10.3125,21.0625,0.29,0.25,-0.31
107.3125,10.125,20.9375,1.02,0.39,-0.37
108.375,10.1875,21.0625,1.36,0.8,-0.34
109.375,10.375,21.1875,1.5,1.28,-0.33
110.375,10.6875,21.25,1.11,2.25,-0.49
111.1875,11.0625,21.3125,0.97,2.39,-0.9
112,11.5,21.25,0.06,2.52,-1.43
112.6875,11.9375,21.0625,-0.09,2.01,-2.04
113.25,12.25,20.875,-0.03,1.64,-2.29
114.375,12.6875,20.125,0.04,1.35,-2.38
114.8125,12.8125,19.75,0.09,1.04,-2.33
115.3125,12.875,19.375,0.19,0.51,-2.11
115.8125,12.9375,18.9375,0.17,0.27,-1.97
116.3125,13.0625,18.5,-0.08,0.09,-1.64
116.8125,13.125,18,-0.56,-0.37,-1.14
117.375,13.25,17.625,-0.51,-0.55,-1.13
118,13.3125,17.25,-0.24,-0.67,-1.34
119.375,13.3125,16.8125,0.15,-0.55,-1.69
120.125,13.375,16.625,0.35,-0.37,0.53
120.9375,13.4375,16.5625,0.35,-0.04,-2.19
121.75,13.5,16.5625,0.3,0.35,-2.44
122.5625,13.625,16.5,-0.01,1.18,-2.78
123.3125,13.6875,16.375,-0.43,1.85,-2.73
124.0625,0,0,-0.46,1.98,-2.58
124.6875,0,0,-0.25,1.79,-2.13
125.25,13.375,15.4375,0.26,1.46,-2.09
126.25,12.8125,14.375,0.58,1.12,-1.96
126.75,12.5,13.75,1.06,0.71,-1.42
127.25,12.25,13.25,1.29,0.49,-1.35
127.6875,12.0625,12.75,1.25,0.4,-1.21
128.1875,12,12.375,1.17,0.46,0
128.6875,11.9375,12,0.59,0.75,0
129.125,11.8125,0,0.46,0.79,-1.34
129.625,11.6875,11.4375,-0.24,1.38,-0.62
130.125,11.5,11.25,0.42,1.34,-0.55
131.0625,10.75,10.75,0.63,1.41,-0.15
131.5625,10.375,10.4375,1.35,0,0
132,10,10.125,2.16,1.08,-0.48
132.4375,9.75,9.9375,2.4,1.34,-0.17
132.8125,9.625,9.75,2.6,1.4,-0.37
133.125,9.5625,9.625,2.42,0,0
133.5,9.5625,9.5,1.47,0,0
133.6875,9.625,9.3125,1.39,2.34,-0.3
133.8125,9.625,9.0625,1.43,2.15,-0.47
133.8125,9.625,8.6875,1.45,0,0
133.75,0,0,1.36,1.22,0
133.5625,0,0,0.84,0.08,-0.61
133.375,9.9375,6.9375,0.28,-0.37,-0.44
133.3125,10.1875,6.25,-0.16,-1.24,-0.53
133.1875,0,0,-0.21,-1.52,-0.62
133.1875,10.4375,4.8125,-0.11,-1.68,-0.75
133.375,10.3125,4.625,0.11,-1.64,-0.97
133.5625,10.1875,4.625,0.35,-0.91,-1.18
133.9375,10,4.6875,0.54,-0.42,-1.37
134.3125,9.8125,4.8125,0.65,0.18,-1.51
134.6875,9.625,4.9375,0.81,1.21,-1.71
135,9.375,4.9375,0.89,1.58,-1.78
135.3125,9.1875,4.875,1.07,1.66,-1.83
135.5,0,0,1.62,1.48,-1.82
135.625,8.625,4.3125,1.74,1.22,-1.78
135.625,8.125,3.4375,1.72,0.94,-1.7
135.625,7.875,3,1.37,0.83,-1.25
135.625,7.5625,2.5625,0.64,0.74,-0.14
135.625,7.25,2.125,0.71,0.56,0.15
135.6875,6.875,1.75,0.59,0.7,0.81
135.75,6.375,1.4375,0.81,0.74,1.3
135.9375,5.875,1.3125,2.17,1.05,1.32
136.0625,5.375,1.3125,3.45,1.74,0.68
136.1875,5,1.375,3.21,2.67,0.16
136.1875,4.8125,1.625,2.67,3.2,-0.03
136.0625,4.9375,1.625,1.99,3.5,-0.16
135.6875,5.125,1.375,1.17,3.41,-0.2
135.25,5.3125,0.8125,0.35,2.6,0
134.6875,5.4375,0.125,0.1,0,0
134.0625,5.4375,-0.5625,0.03,1.26,-0.42
133.4375,5.3125,-1.3125,0.09,0.68,-0.16
132.8125,5.125,-2,0.47,-0.26,0.17
132.25,4.875,-2.625,0.54,0,0
131.75,4.625,-3.125,0.89,0,0
131.3125,4.375,-3.375,1.08,-0.85,0.6
131,4.125,-3.5625,1.1,-0.27,0.6
130.75,3.875,-3.5625,1.05,0.18,0.49
130.5,3.625,0,1.15,1.6,-0.03
129.875,3,-2.875,1.42,1.93,-0.17
129.5,2.625,-2.4375,1.25,2.61,0.07
129.0625,2.25,-2.125,1.35,3.09,0.34
128.5,1.8125,-1.9375,1.85,3.36,0.57
127.875,1.4375,-1.875,2.04,3.35,0.68
127.1875,1.125,-2.0625,2.26,3.25,0.66
126.375,0.875,-2.25,2.28,2.86,0.66
125.5,0.6875,-2.5,1.48,0,0
124.625,0.625,0,0.27,1.82,1.73
123.625,0.5625,0,0.21,1.27,1.87
122.625,0.4375,0,0.39,0.68,2.26
121.625,0.3125,-4.125,0.54,0.33,2.33
119.5625,0,-4.8125,0.8,0.14,2.28
118.6875,-0.0625,-5.0625,0.9,0,0
117.6875,0,-5.25,0.73,-0.18,1.61
116.8125,0.0625,-5.4375,0.47,-0.2,1.22
115.9375,0.3125,-5.625,0.16,0,0
115.0625,0.5625,-5.75,1.75,0,0
114.3125,0.75,-5.875,1.59,0,0
113.5,0.875,-5.875,-1.34,-0.23,-0.49
112.6875,0.75,-5.875,-1.41,-0.02,-0.4
111.9375,0.5625,-5.875,-1.35,0.52,0.29
111.1875,0.1875,-5.9375,1.69,0,0
110.375,-0.125,9.9375,-0.49,0.53,1.06
109.5625,-0.5625,-6.25,0.63,-0.14,1.32
108.75,-0.875,-6.5,0.76,-0.27,1.55
107.9375,0,0,0.38,-0.41,1.8
107.1875,0,0,-0.2,-0.27,1.61
105.8125,-1,-6.9375,-0.23,-0.19,1.26
105.125,-1,-6.875,-0.21,0,0.93
104.5,-1.0625,-6.625,-0.26,0.57,0.81
103.9375,-1.1875,-6.375,0.31,0,0
103.1875,-1.4375,-6.125,0.7,0,0
102.4375,-1.625,-5.9375,0.87,1.83,0.19
101.6875,-1.8125,-5.9375,1.01,1.84,0.34
100.6875,-1.9375,-6.0625,0.89,1.15,0.89
99.6875,-1.9375,-6.4375,0.99,0.38,0.93
98.6875,0,0,0.81,0,0
97.625,-1.6875,-7.625,0.56,-2.21,0.57
96.625,-1.4375,-8.125,0.02,-2.52,0.58
95.75,-1.1875,-8.4375,-0.37,-2.76,0.32
95,-1,-8.375,-0.87,-1.72,-0.23
93.75,-1.0625,-7.6875,-0.54,-1.28,-0.53
93.1875,-1.3125,-7.1875,-0.11,-0.68,-0.72
92.6875,-1.6875,-6.625,0.33,-0.19,-0.81
92.125,-2,-6.1875,0.89,0.46,0
91.5625,-2.375,-5.8125,1.08,0.7,0
90.9375,-2.5625,-5.625,1.05,0.82,-0.17
90.25,-2.75,-5.5625,0.98,0.69,-0.01
89.5,-2.8125,-5.625,0.54,0.38,0.44
88.75,-2.8125,-5.75,0.42,0.03,0.58
87.875,0,0,0.52,-0.4,0.54
87,-2.6875,-6.1875,0.74,-1.24,0.2
86.1875,-2.5625,-6.375,0.6,-1.51,-0.02
85.375,0,0,-0.13,-1.75,-0.55
84.6875,-2.0625,-6.5625,-1.2,-1.53,-0.73
83.375,-1.5625,-6.375,-1.38,-1.42,-0.92
82.75,-1.5,-6.1875,-1.43,-1.29,-1
82.125,-1.5625,-5.9375,-1.31,-1.16,-0.95
81.5625,-1.8125,-5.75,-0.6,-0.79,-0.58
81.0625,-2.1875,-5.5,-0.04,-0.69,-0.36
80.5,-2.625,-5.3125,0.46,-0.59,-0.08
79.9375,-3,-5.1875,0.8,-0.45,0.25
79.4375,-3.3125,-5,1.22,-0.49,0.48
78.875,-3.5625,-4.9375,0.7,-0.46,0.74
77.625,-3.5,-5,-0.3,-0.85,0.89
76.9375,-3.4375,-5.0625,-1.1,-1.02,1.36
76.1875,-3.3125,-5.1875,-1.58,-1.31,1.78
75.5,-3.1875,-5.4375,-1.86,-1.26,2.06
74.875,-3.1875,-5.75,-1,-2.78,1.67
74.125,-3.1875,-6.125,-0.59,-3.44,1.51
73.5,-3.1875,-6.4375,-0.08,-3.94,1.08
73.0625,-3.0625,-6.5625,-0.02,-4.13,0.64
72.6875,-2.875,-6.375,-1.2,-2.94,-1.06
72.5,-2.3125,-5.375,-1.67,-2.17,-1.55
72.5,-2.1875,-4.625,-2.25,-1.26,-1.71
72.4375,-2.125,-3.8125,-2.32,0.04,-1.92
72.4375,-2.375,-3.125,-2.11,0.58,-1.68
72.3125,-2.75,-2.6875,-1.53,0.83,-1.37
72.25,-3.1875,-2.4375,-0.01,0.61,-0.67
72.0625,-3.6875,-2.375,0.62,0.5,-0.12
71.875,-4.0625,-2.4375,1.1,0.39,0.37
71.6875,-4.3125,-2.625,1.17,-0.08,1.35
71.3125,-4.125,-3.1875,1.22,-0.55,0.88
71.125,-3.75,-3.4375,0.96,-0.91,0.21
70.9375,-3.125,-3.75,0.31,-1.06,-0.34
70.8125,-2.25,-4,-1.72,-1.29,-1.18
70.6875,-1.4375,-4.1875,-2.54,-1.4,-1.59
70.625,-0.6875,-4.375,-3.18,-1.29,-1.82
70.625,-0.1875,-4.4375,-3.3,-1.41,-2.12
70.625,0,-4.375,-3.09,-1.17,-1.66
70.6875,-0.0625,-4.3125,-2.05,-1.04,-0.65
70.9375,-0.75,-4.1875,-0.31,-1.1,-0.12
71.3125,-1.1875,-4.1875,0.26,-1.02,0.15
71.5625,-1.5625,-4.125,0.9,-1.01,0.13
71.8125,-1.75,-4.0625,0.85,-0.72,0.33
72.125,-1.625,-3.8125,0.23,-0.06,0.3
72.375,-1.3125,-3.625,-0.1,0.01,-0.14
72.625,-0.875,-3.5625,-0.55,0,-0.71
72.8125,-0.375,-3.625,-1.41,-0.03,-0.97
73.0625,0,-3.75,-3.41,-0.75,-1.07
73.5,0.4375,-4.3125,-3.47,-1.14,-0.92
74,0.375,-4.5625,-3.31,-1.47,-0.65
74.3125,0.125,-4.625,-2.02,-2.05,-0.51
74.75,-0.0625,-4.625,-1.52,-2,-0.33
75.3125,-0.25,-4.5,-1.11,-1.95,-0.29
75.9375,-0.375,-4.1875,-1.41,-1.14,0.07
76.625,-0.375,-3.875,-2.18,-0.4,0.65
77.3125,-0.375,-3.4375,-2.62,0.16,0.95
77.9375,-0.4375,-3.0625,-2.28,0.86,0.87
79.3125,-0.5625,-2.4375,-1.87,1.03,0.71
80.0625,-0.625,-2.1875,-1.7,1.39,0.58
80.6875,-0.5625,-2,-1.31,1.53,0.43
81.3125,-0.4375,-1.875,-0.89,1.65,-0.17
81.9375,-0.25,-1.8125,-0.91,1.57,-0.46
82.5,0,-1.75,-1.58,1.74,-0.17
83.0625,0.3125,-1.8125,-2.22,1.81,0.13
83.5625,0.625,-2,-2.75,1.13,0.25
84,0.875,-2.1875,-2.72,0.09,0.43
84.9375,1.1875,-2.5,-2.4,-0.56,0.72
85.6875,1.3125,-2.5,-2.29,-0.54,0.9
86.375,1.4375,-2.375,-1.88,-0.58,0.68
87.125,1.625,-2.125,-1.53,-0.4,0.4
87.9375,1.875,-1.75,-1.45,0.4,0.01
88.75,2.25,-1.375,-1.7,0.77,-0.16
89.625,2.625,-0.9375,-2.13,1.05,-0.33
90.375,3,-0.625,-2.61,1.28,-0.32
91,3.3125,-0.375,-2.72,0.53,-0.6
91.625,3.5,-0.25,-3.08,0.3,-0.15
92.3125,3.75,-0.25,-3.11,-0.06,0.22
93.0625,3.875,-0.375,-2.84,-0.68,0.94
94.625,4.1875,-0.5,-2.3,-1.01,0.99
95.5625,4.375,-0.4375,-1.98,-1.06,1.17
96.625,4.625,-0.375,-1.5,-0.7,1.29
97.8125,5.0625,-0.1875,-1.38,-0.3,1.09
99,5.5625,0,-1.33,0.03,0.6
100.25,6.1875,0.3125,-1.82,1.59,-1.02
101.5,6.875,0.625,-1.97,1.99,-1.58
102.625,7.5,1,-2.26,2.57,-1.85
104.75,8.5625,1.5,-2.43,2.89,-1.81
105.625,8.875,1.5,-2.58,3.23,-1
106.375,9.125,1.125,-2.38,2.99,-0.33
106.9375,9.25,0.5625,-1.69,2.18,0.05
107.625,9.4375,-0.0625,-0.94,1.21,0.28
108.125,9.6875,-0.75,0.29,-0.42,0.47
108.6875,10.125,-1.25,-0.03,-1.16,0.35
109.3125,10.75,-1.5,-1.35,-0.61,0.02
110.875,12.125,-1.375,-2.1,-0.06,-0.21
111.75,12.8125,-1.1875,-2.62,0.49,-0.49
112.625,13.3125,-0.9375,-2.69,0.75,-0.94
113.4375,13.8125,-0.8125,-2.74,1.26,-1.05
114.25,14.0625,-0.8125,-2.29,1.14,-1.22
115.1875,14.3125,-0.875,-2.19,1.16,-0.84
115.9375,14.4375,-1,-1.46,0.86,-0.94
116.625,14.625,-1.125,-0.33,0.29,-1.02
118.1875,15.0625,-1.25,-0.51,0.41,-0.94
118.9375,15.4375,-1.25,-0.78,0.44,-1.02
119.75,15.8125,-1.25,-1.84,0.75,-0.75
120.5,16.125,-1.1875,-1.94,0.68,-0.91
121.25,16.3125,-1.1875,-2.08,0.63,-0.94
122.0625,16.4375,-1.1875,-1.9,0.64,-0.68
123,16.4375,-1.1875,-1.53,0.51,-0.57
123.75,16.375,-1.25,-0.66,0.22,-0.57
124.5,16.3125,-1.25,-0.51,0.32,-0.35
126.1875,16.4375,-1.1875,-0.64,0.51,-0.36
127.125,16.625,-1.125,-0.68,0.6,-0.57
128,16.8125,-1.125,-0.97,0.79,-0.69
128.9375,17.0625,-1.0625,-1.37,1.18,-1
129.8125,17.25,-1,-1.63,1.53,-0.87
130.6875,17.3125,-0.9375,-1.33,1.6,-1.03
131.5625,17.3125,-0.9375,-0.52,1.47,-1.25
132.3125,17.3125,-1,-0.28,1.31,-1.38
133.75,17.5,-1.3125,-0.15,1.06,-1.46
134.4375,17.625,-1.5625,-0.67,0.98,-0.88
135.0625,17.8125,-1.875,-0.73,0.71,-0.88
135.75,17.9375,-2.1875,-0.78,0.49,-0.89
136.4375,18.0625,-2.4375,-0.93,0.36,-0.78
137.125,18.0625,-2.625,-0.92,0.25,-0.59
137.875,18.0625,-2.75,-1.11,0.45,-0.18
138.625,18,-2.8125,-0.36,0.37,-0.25
139.4375,17.875,-2.8125,0.11,0.67,-0.19
141.1875,17.625,-2.625,0.14,1.01,-0.06
142.0625,17.5625,-2.5,0.07,1.31,0
143,17.5625,-2.375,0.18,1.57,-0.15
143.875,17.5625,-2.3125,0.34,1.93,-0.57
144.75,17.625,-2.1875,0.32,2.1,-0.82
145.5,17.75,-2.1875,0.32,2.15,-1.05
146.25,17.8125,-2.1875,0.03,1.86,-1.61
146.875,17.9375,-2.25,-0.2,1.57,-1.61
147.4375,18.0625,-2.375,-0.61,1.35,-1.39
148.4375,18.1875,-2.9375,-0.47,0.34,-1.4
148.9375,18.125,-3.1875,-0.57,0.05,-1.19
149.5,18.0625,-3.4375,-0.62,-0.13,-1.1
150.1875,17.9375,-3.625,-0.54,-0.41,-1.12
150.875,17.75,-3.75,-0.75,-0.42,-1.08
151.6875,17.5625,-3.75,-0.76,0.03,-1.26
152.625,17.3125,-3.6875,-0.8,0.57,-1.11
153.5625,16.9375,-3.4375,-0.49,1.61,-0.76
155.5625,15.9375,-2.6875,-0.11,2.14,-0.69
156.4375,15.375,-2.3125,0.05,2.74,-0.32
157.3125,14.8125,-2.0625,0.55,3.29,0.4
158,14.3125,-1.875,1.21,2.97,0.37
158.5,14,-1.875,1.3,2.78,0.7
158.9375,13.75,-2.125,1.29,1.15,0.62
159.25,13.8125,-2.4375,1.13,0.45,0.1
159.5625,14,-2.8125,0.35,0.03,-0.07
160.125,14.9375,-3.5625,-0.64,-0.19,-0.2
160.5,15.4375,-3.8125,-1.95,-0.56,-0.72
160.875,15.75,-4,-2.25,-0.76,-0.93
161.3125,16,-4.125,-2.38,-0.8,-0.91
161.8125,16,-4.1875,-2.24,-0.76,-0.86
162.375,15.875,-4.125,-1.36,-0.77,-0.91
163,15.625,-4,-0.59,-0.1,-0.61
164.5,15.0625,-3.625,-0.4,0.73,-0.14
165.3125,14.875,-3.4375,-0.29,1.15,-0.09
166.0625,14.75,-3.25,-0.17,1.37,-0.16
166.8125,14.625,-3.125,0.02,1.52,-0.3
167.5,14.5625,-3.0625,0.28,1.72,-0.36
168.0625,14.5625,-3.0625,0.26,1.69,-0.38
168.625,14.625,-3.125,0.43,1.51,-0.56
169.125,14.75,-3.25,0.06,0.78,-0.9
169.875,15.125,-3.5,-0.39,0.57,-0.89
170.1875,15.375,-3.6875,-0.74,0.24,-0.98
170.5,15.625,-3.8125,-1.68,-0.46,-0.86
170.8125,15.8125,-3.9375,-2.09,-0.79,-0.64
171.1875,15.9375,-4.125,-2.31,-1.1,-0.44
171.5625,15.9375,-4.25,-1.76,-1.72,-0.06
172.0625,15.75,-4.375,-1.36,-1.63,0.11
172.6875,15.5625,-4.375,-1.08,-1.33,0.27
174.25,14.9375,-4.125,-0.66,-0.89,0.31
175.25,14.6875,-3.9375,0.09,0.04,-0.18
176.3125,14.5625,-3.6875,-0.43,0.74,0
177.375,14.5625,-3.5,-1.05,1.49,0.27
178.4375,14.5625,-3.5,-1.41,1.94,0.44
179.4375,14.5,-3.5,-0.46,2.09,1.04
180.3125,14.25,-3.6875,0.15,1.92,1.45
181.125,13.875,-3.875,0.74,1.78,1.96
182.5625,13.1875,-4.3125,1.46,1.56,2.64
183.3125,13.125,-4.5,1.36,1.65,2.99
184.0625,13.1875,-4.6875,1.6,1.54,2.73
184.75,13.4375,-4.875,1.27,1.52,2.04
185.5625,13.875,-4.9375,0.95,1.59,1.58
186.3125,14.375,-5,0.54,1.7,1.06
187,14.9375,-4.9375,-0.44,2.32,0.13
188.375,15.9375,-4.75,-0.51,2.44,0.03
189,16.3125,-4.6875,-0.32,2.48,-0.03
189.5625,16.5,-4.5625,-0.18,2.66,0.18
190.125,16.625,-4.4375,0.66,2.83,0.63
190.6875,16.625,-4.25,1.29,2.88,0.8
191.125,16.625,-4.0625,1.65,3.02,1.13
191.625,16.625,-3.875,2.36,3.19,1.45
192,16.8125,-3.6875,2.64,3.18,1.19
192.3125,17.125,-3.5625,2.46,3.27,1.06
192.875,18.1875,-3.1875,1.81,3.46,0.69
193.0625,18.875,-3,1.56,3.52,0.36
193.1875,19.625,-2.75,1.11,3.55,0.03
193.25,20.375,-2.625,0.94,3.35,-0.42
193.1875,21.125,-2.4375,0.4,3.13,-0.39
193.0625,21.8125,-2.375,0.65,2.33,-0.59
192.8125,22.375,-2.3125,0.71,2.03,-0.48
192.5625,22.9375,-2.25,1.21,1.45,-0.57
192.0625,23.875,-2.0625,1.15,1.35,-0.39
191.875,24.3125,-1.875,1.22,1.33,-0.41
191.625,24.75,-1.625,1.22,1.46,-0.59
191.5,25.25,-1.3125,1.25,1.58,-0.84
191.375,25.6875,-0.875,1.3,1.68,-1.22
191.1875,26.1875,-0.5,1.36,1.78,-1.68
191.0625,26.6875,-0.125,0.73,2.24,-2.3
190.875,27.1875,0.1875,0.17,2.54,-1.99
190.6875,27.625,0.5625,0.04,2.78,-1.78
190.1875,28.3125,1.1875,0.66,2.43,-1.48
189.75,28.4375,1.4375,0.9,2.28,-1.03
189.0625,28.5,1.5625,1.17,2.07,-0.58
188.4375,28.6875,1.6875,1.43,1.68,-0.23
187.8125,28.9375,1.75,1.48,1.02,0.37
187.1875,29.3125,1.875,1.63,0.38,-0.19
186.625,29.8125,2.1875,0.88,0.46,-0.76
186,30.4375,2.5625,0.25,0.81,-1.07
185.125,31.625,3.5625,-0.13,0.97,-1.6
184.75,32.1875,4.0625,-0.47,1.24,-2.08
184.3125,32.625,4.5625,-0.91,1.62,-2.54
183.6875,32.875,5,-0.77,1.68,-2.69
183.125,33,5.375,-0.42,1.6,-2.84
182.4375,33,5.6875,-0.11,1.41,-2.77
181.75,33.0625,5.875,0.17,0.98,-1.77
181.0625,33.0625,6,0.28,0.78,-1.6
180.25,33.125,6.0625,0.35,0.58,-1.47
178.8125,33.375,6.25,0.01,0.54,-0.94
178.125,33.375,6.5,-0.09,0.65,-0.52
177.375,33.375,6.75,-0.03,0.71,-0.29
176.625,33.4375,7,0.53,0.66,-0.34
175.875,33.5625,7.25,0.53,0.68,-0.29
175.1875,33.75,7.5,0.41,0.66,-0.31
174.375,34.0625,7.75,0.39,0.52,-0.58
173.625,34.4375,8.0625,-0.64,0.29,-1.32
172.6875,34.8125,8.4375,-0.91,0.25,-1.68
172,35.125,8.8125,-1.3,0.38,-1.77
170.75,35.375,9.75,-1.48,0.65,-1.72
170.125,35.25,10.25,-1.41,0.89,-1.53
169.5,35,10.6875,-0.92,0.87,-1.5
168.875,34.75,11.0625,-0.33,0.8,-1.48
168.1875,34.5,11.5,0.25,0.73,-1
167.5,34.25,11.8125,0.53,0.62,-0.89
166.75,34.1875,12.1875,0.23,0.27,-0.68
165.75,34.1875,12.5625,0.1,0.07,-0.92
165,34.25,13,-0.14,0,-1.2
163.4375,34.5,13.9375,-0.46,0,-1.41
162.75,34.625,14.4375,-1.14,0.18,-1.72
161.875,34.6875,14.9375,-1.25,0.2,-1.94
161.125,34.6875,15.375,-1.34,0.38,-1.98
160.4375,34.625,15.75,-1.27,0.51,-1.94
159.75,34.4375,16.0625,-0.56,0.74,-1.62
159,34.1875,16.3125,-0.2,0.7,-1.59
158.125,34,16.5,0.12,0.62,-1.62
156.5625,33.6875,16.75,-0.02,0.8,-1.23
155.75,33.625,16.8125,0.15,0.64,-1.39
154.8125,33.5,16.9375,0.23,0.52,-1.49
153.9375,33.5,17.0625,0.05,0.42,-1.6
153.0625,33.5,17.1875,-0.09,0.38,-1.73
152.125,33.5,17.375,-0.66,0.55,-1.59
151.25,33.5,17.5625,-1.33,0.54,-1.55
150.3125,33.375,17.6875,-1.24,0.4,-1.65
148.375,33.0625,17.875,-1.18,0.36,-1.59
147.5,32.75,18,-0.89,0.28,-1.67
146.625,32.375,18.125,-0.63,0.34,-1.27
145.8125,32.0625,18.125,-0.44,0.43,-1.06
144.9375,31.75,18.1875,-0.2,0.45,-1.06
144.125,31.4375,18.25,-0.07,0.44,-1.02
143.25,31.25,18.3125,-0.34,0.51,-0.92
141.5625,30.9375,18.4375,-0.57,0.56,-0.91
140.5,30.75,18.5,-0.74,0.56,-1.12
139.625,30.5625,18.625,-0.7,0.4,-1.38
138.6875,30.375,18.625,-0.79,0.44,-1.44
137.8125,30.125,18.625,-0.85,0.36,-1.42
136.9375,29.875,18.625,-1.02,0.14,-1.02
136,29.5625,18.625,-1,-0.01,-0.91
135.1875,29.25,18.625,-0.91,-0.18,-0.86
133.625,28.5625,18.625,-0.8,-0.25,-0.69
132.9375,28.1875,18.8125,-0.75,-0.2,-0.64
132.1875,27.8125,19,-0.44,-0.11,-0.93
131.6875,27.5625,19.25,-0.39,0.24,-0.99
131.1875,27.3125,19.4375,-0.41,0.81,-1.26
130.625,27.0625,19.625,-0.02,1.1,-1.75
130,26.75,19.8125,-0.32,1.46,-1.5
129.3125,26.375,19.9375,-0.42,1.56,-1.37
127.6875,25.6875,20,-0.49,1.32,-1.3
126.75,25.3125,19.875,-0.49,1.04,-1.19
125.75,25,19.625,-0.68,0.31,-0.99
124.6875,24.5625,19.4375,-0.69,-0.17,-0.98
123.6875,24.25,19.1875,-0.8,-0.41,-0.79
122.75,23.9375,18.9375,-1.21,-0.57,-0.43
121.875,23.5625,18.8125,-1.26,-0.42,-0.38
120.25,22.9375,18.6875,-1.06,-0.4,-0.6
119.5625,22.625,18.6875,-0.83,-0.49,-0.98
118.875,22.4375,18.6875,-1.12,-0.02,-0.99
118.25,22.125,18.6875,-0.99,0.08,-1.25
117.6875,21.875,18.75,-0.85,0.2,-1.5
117.0625,21.5,18.8125,-0.93,0.87,-1.38
116.5,21.1875,18.875,-0.6,1.35,-1.28
115.875,20.75,18.9375,-0.5,1.67,-1.11
114.5,19.9375,18.8125,-0.06,1.65,-1.26
113.6875,19.625,18.625,-0.17,1.63,-1.28
112.8125,19.375,18.3125,-0.21,1.28,-1.56
111.8125,19.25,17.9375,-0.4,0.73,-1.89
110.6875,19.1875,17.5625,-1.98,0.18,-1.58
109.625,19.125,17.0625,-2.81,-0.97,-1.71
108.4375,19,16.5,-3.02,-1.45,-1.71
107.4375,18.8125,15.875,-3.31,-1.91,-1.38
105.75,18.1875,14.625,-3.34,-1.98,-0.96
105.1875,17.75,14.0625,-3.04,-1.91,-0.55
104.625,17.125,13.625,-1.83,-1.83,0.11
104.25,16.5,13.25,-0.92,-1.67,0.3
103.9375,15.8125,13,-0.19,-1.42,0.45
103.75,15.25,12.9375,0.52,0.63,0.78
103.625,14.8125,13.0625,1,1.05,0.14
103.5,14.5,13.25,0.89,1.6,-0.22
103,14.375,13.5625,0.38,2.2,-0.37
102.5625,14.5,13.5625,-0.73,2.82,-0.66
102,14.625,13.375,-1.09,2.62,-0.91
101.3125,14.75,12.9375,-1.49,2.32,-0.89
100.5,14.8125,12.25,-1.65,1.74,-0.81
99.625,14.6875,11.5625,-1.34,-0.51,0.08
97.8125,14.375,9.875,-0.89,-1.35,0.15
97.0625,14.1875,9.25,-0.54,-2.05,0.43
96.4375,14.0625,8.75,-0.46,-2.08,0.27
96,14.0625,8.5,-0.72,-1.73,0.12
95.6875,14.125,8.5,-0.9,-1.16,-0.24
95.5,14.1875,8.625,-1.01,0.09,-1.36
95.3125,14.25,8.75,-0.92,0.68,-1.93
95.1875,14.25,8.875,-0.52,1.05,-2.66
95,14.125,8.9375,-0.61,2.28,-2.97
94.4375,13.6875,8.75,-0.95,2.55,-2.38
93.9375,13.375,8.375,-1.22,2.5,-1.62
93.3125,12.875,7.875,-1.21,2.12,-1
92.5,12.375,7.125,-0.99,0.52,0.25
91.6875,11.875,6.1875,-0.58,-0.58,0.56
90.875,11.4375,5.1875,-0.25,-1.73,0.7
90.125,11.0625,4.3125,-0.17,-3.13,0.71
89.5625,10.8125,3.6875,-0.59,-3.28,0.74
89.125,10.625,3.375,-1.13,-3.02,0
88.8125,10.375,3.5,-2.1,-1.85,-0.7
88.875,10.1875,3.875,-2.41,-1.02,-0.87
89,9.8125,4.375,-2.77,-0.06,-0.66
89.0625,9.25,4.9375,-2.59,0.65,-0.61
89.1875,8.5625,5.375,-1.38,1.49,-0.25
89.25,7.6875,5.625,-0.49,1.6,-0.02
89.25,6.8125,5.625,0.54,1.35,0.02
89.0625,6.125,5.4375,1.16,0.22,0.13
88.875,5.625,5.1875,0.73,-0.3,-0.29
88.375,5.3125,4.625,0.01,-0.86,-0.95
88.1875,5.375,4.5,-2.43,-1.21,-1.7
88,5.3125,4.5625,-3.2,-1.4,-2.24
87.8125,5.0625,4.875,-3.96,-1.35,-2.48
87.8125,4.5625,5.25,-4.46,-0.99,-2.23
87.9375,3.6875,5.6875,-3.76,-0.4,-1.38
88.0625,2.4375,6.1875,-2.84,0.2,-0.5
88.3125,1,6.6875,-1.82,0.83,0.5
88.5625,-0.4375,7.0625,1.35,2.13,2.53
88.9375,-3,7.5,2.43,1.96,2.49
89,-3.8125,7.375,2.89,1.71,2.37
88.875,-4.25,7.125,2.85,1.42,2.12
88.6875,-4.25,6.75,1.29,1.09,1.42
88.4375,-3.9375,6.4375,0.25,0.88,0.79
88.0625,-3.4375,6,-1.12,0.87,0.38
87.75,-2.875,5.5625,-3.06,0.68,-0.51
87.375,-2.4375,5.0625,-3.55,0.4,-0.87
87,-2.1875,4.4375,-3.6,-0.4,-0.72
86.3125,-2.375,3,-2.6,-1.47,0.21
86,-2.6875,2.1875,-1.79,-2.08,0.59
85.8125,-3.1875,1.3125,-0.79,-2.71,0.78
85.625,-3.625,0.75,-0.51,-2.72,1.38
85.5625,-4,0.4375,-0.21,-2.12,2.04
85.5625,-4.25,0.375,-0.34,-1.38,2.18
85.75,-4.375,0.5625,-0.71,-0.43,2.31
85.875,-4.375,0.9375,-0.22,0.05,1.55
85.9375,-4.3125,1.3125,-0.04,0.86,-1.03
86,-4.125,1.625,-0.4,0.85,-1.82
86,-3.8125,1.8125,-1.8,0.96,-2.19
85.9375,-3.5,1.9375,-2.54,1.22,-1.83
85.6875,-3.3125,2.0625,-2.86,1.34,-1.35
85.5625,-3.5625,2.0625,-2.55,1.25,-0.94
85.375,-4.0625,2,-1.33,1.27,0.47
85.25,-4.75,1.875,-0.34,1.08,1.09
85,-5.5,1.6875,0.76,0.77,1.52
84.75,-6.1875,1.4375,1.43,0.44,2.03
84.5,-6.625,1.0625,1.77,-0.64,1.9
84.1875,-6.75,0.625,1.18,-0.94,1.45
83.875,-6.25,0.3125,0.13,-0.97,1.05
83.375,-5.0625,-0.0625,-2.13,-0.68,0.32
83.125,-4.375,-0.25,-2.99,-0.67,-0.08
83,-3.9375,-0.5625,-3.2,-0.92,-0.67
83.0625,-3.75,-0.875,-2.74,-1.34,-1.32
83,-3.8125,-1.125,-2.22,-1.45,-1.28
83,-4,-1.375,-1.55,-1.44,-1.14
83.125,-4.3125,-1.5,-0.51,-0.63,0.56
83.25,-4.5625,-1.625,-0.25,-0.46,1.15
83.375,-4.875,-1.75,-0.16,-0.21,1.62
83.6875,-5.125,-2.125,0.06,-0.08,1.85
83.8125,-5.0625,-2.3125,0.55,-0.26,1.48
83.9375,-4.8125,-2.5625,0.59,-0.53,1.09
84.1875,-4.4375,-2.875,0.35,-0.66,0.63
84.375,-3.875,-3.1875,-0.28,-0.79,0.29
84.625,-3.375,-3.4375,-1.61,-0.8,-0.38
84.875,-2.9375,-3.6875,-2.78,-0.46,-0.46
85.1875,-2.6875,-3.875,-2.63,-0.13,-0.26
85.5,-2.6875,-4,-2,-0.14,-0.12
86.125,-3.25,-4.1875,-1.44,-0.02,0.17
86.5,-3.625,-4.3125,-0.82,0.1,0.5
86.875,-3.9375,-4.4375,0.3,0.23,1.09
87.3125,-4.125,-4.5625,0.64,0.26,1.2
87.6875,-4.1875,-4.75,0.76,0.27,1.25
88.125,-4.0625,-4.875,0.75,0.28,1.07
88.5,-3.8125,-5.0625,-0.24,0.41,0.16
88.9375,-3.4375,-5.1875,-0.88,0.54,-0.02
89.3125,-3.0625,-5.3125,-1.33,0.55,-0.27
90,-2.625,-5.5625,-1.8,0.48,-0.44
90.375,-2.625,-5.75,-1.61,0.4,-0.51
90.625,-2.6875,-5.875,-1.59,0.39,-0.16
90.9375,-2.875,-6.125,-0.8,-0.03,0.37
91.3125,-3.0625,-6.375,-0.29,-0.3,0.6
91.625,-3.1875,-6.6875,0.07,-0.65,0.78
92.0625,-3.1875,-6.9375,0.39,-1.01,0.78
92.5,-3.0625,-7.0625,0.33,-1.05,0.65
93,-2.875,-7.125,0,-0.96,0.35
93.625,-2.5625,-7.0625,-0.78,-0.3,-0.28
94.75,-2.0625,-6.8125,-1.46,0.14,-0.86
95.3125,-1.9375,-6.75,-1.41,0.27,-1.14
95.875,-1.9375,-6.75,-1.38,0.35,-1.21
96.375,-2.0625,-6.75,-1.16,0.29,-1.21
96.875,-2.25,-6.9375,-0.78,0.24,-0.46
97.3125,-2.5,-7.1875,-0.38,-0.08,-0.08
97.8125,-2.6875,-7.5625,-0.01,-0.41,0.28
98.375,-2.875,-7.875,0.71,-1.02,0.65
98.9375,-3,-8.125,1.02,-1.31,0.44
99.625,-3.0625,-8.3125,0.82,-1.16,0.21
101.0625,-2.875,-8.0625,-0.08,-0.41,-0.33
101.8125,-2.8125,-7.8125,-0.49,0,-0.78
102.5625,-2.75,-7.4375,-0.88,0.44,-1.17
103.25,-2.8125,-7.1875,-1.24,0.8,-1.43
103.875,-3,-7.0625,-1.68,1.2,-1.09
104.5625,-3.3125,-7.25,-1.47,1.01,-0.81
105.3125,-3.6875,-7.5625,-1.22,0.6,-0.32
105.875,-4.1875,-8,0.74,-0.85,1.18
106.4375,-4.6875,-8.5,1.41,-1.23,1.49
107.75,-5.4375,-9,1.78,-1.36,1.67
108.5,-5.5625,-8.9375,1.73,-1.11,1.12
109.375,-5.5,-8.6875,1.09,-0.51,0.83
110.25,-5.25,-8.375,0.48,0.01,0.21
111.0625,-4.9375,8,-0.42,0.61,-0.25
111.875,-4.6875,-7.75,-1.42,1.31,-1.15
112.9375,-4.5,-7.6875,-1.73,1.38,-1.23
113.625,-4.5,-7.75,-1.38,0.89,-0.87
114.3125,-4.6875,-8,-0.13,-0.07,-0.45
115.5625,-5.375,-8.6875,0.4,-0.42,-0.06
116.25,-5.6875,-8.9375,0.84,-0.56,0.27
117,-5.9375,-9,1.01,-0.63,0.54
117.75,-6.0625,-9,0.58,-0.13,1.14
118.5625,-6.0625,-8.9375,0.31,0.22,1.26
119.375,-6,-8.875,0.07,0.48,1.3
120.4375,-5.875,-8.875,-0.14,0.82,1.2
121.1875,-5.6875,-8.9375,-0.1,0.77,1.07
122,-5.4375,-9.125,0.03,0.35,0.85
123.5625,-4.8125,-9.5625,0.32,-0.31,0.31
124.375,-4.4375,-9.75,0.31,-0.36,0.08
125.125,-4.0625,-9.8125,0.02,-0.33,-0.02
125.9375,-3.75,-9.75,-0.35,-0.17,-0.18
126.8125,-3.375,-9.6875,-1.07,0.26,-0.44
127.625,-3.125,-9.5625,-1.46,0.42,-0.34
128.5,-3,-9.4375,-1.61,0.62,-0.2
129.25,-3,-9.4375,-1,0.36,0.65
129.9375,-3.125,-9.4375,-0.36,0.11,0.95
131.4375,-3.5,-9.5625,0.12,-0.17,1.28
132.1875,-3.5625,-9.625,0.99,-0.46,1.46
133.0625,-3.5,-9.625,1.01,-0.39,1.5
134,-3.375,-9.5,0.96,-0.25,1.34
134.9375,-3.0625,-9.25,0.77,-0.02,1.02
135.875,-2.6875,-8.9375,0.41,0.5,-0.14
136.8125,-2.3125,-8.5,-0.21,0.98,-0.49
137.75,-1.9375,-8.125,-0.6,1.44,-1.31
138.5625,-1.625,-7.8125,-0.92,1.32,-1.32
140.125,-1.5,-7.5,-0.79,1.17,-1.1
140.875,-1.625,-7.5,-0.6,0.95,-0.69
141.5,-1.875,-7.5625,-0.3,0.62,-0.13
142.25,-2.1875,-7.625,0.46,0.36,1.45
142.875,-2.5625,-7.6875,1.15,0,1.95
143.625,-2.9375,-7.6875,1.8,-0.12,2.32
144.4375,-3.125,-7.5625,2.51,-0.04,2.78
145.25,-3.1875,-7.3125,2.78,0.1,2.51
146.125,-3.0625,-7,2.21,0.79,1.93
147.8125,-2.3125,-6,1.33,1.33,0.81
148.625,-1.75,-5.5,0.93,1.48,0.18
149.4375,-1.1875,-5.0625,0.58,1.53,-0.46
150.1875,-0.75,-4.6875,0.36,1.59,-1.22
151.0625,-0.4375,-4.3125,-0.42,2.42,-1.22
151.8125,-0.375,-4,0.57,2.28,-1.77
152.5,-0.5625,-3.5625,0.87,2.75,-1.37
153.125,-1.0625,-3.25,3.6,3.12,0.4
153.6875,-1.625,-2.9375,4.65,3.11,1.1
154.625,-2.75,-2.25,5.65,3.02,1.38
155,-3,-1.875,6.3,3.17,2.09
155.25,-3,-1.5,6.21,3.2,2.05
155.375,-2.625,-1.0625,5.68,3.41,1.87
155.4375,-2.0625,-0.625,5.26,3.42,1.26
155.375,-1.25,-0.1875,3.95,3.3,-0.2
155.125,-0.3125,0.125,3.27,3.16,-1.19
154.9375,0.625,0.4375,1.82,2.77,-2.85
154.5625,1.5625,0.625,0.93,2.32,-3.67
153.75,2.875,0.875,0.72,2.02,-3.71
153.25,3.1875,0.9375,0.64,1.76,-3.4
152.75,3.3125,0.9375,1.08,1.37,-3.14
152.1875,3.1875,0.875,2.01,0.67,0.2
151.625,3,0.9375,2.65,0.38,-2.17
151.1875,2.8125,1,3.14,0.36,-2.08
150.6875,2.6875,1.25,3.43,0.84,-2.3
150.25,2.625,1.625,3.25,2.05,-3.37
149.875,2.6875,2.1875,3.07,2.73,-4.26
149.0625,2.8125,3.5,1.62,4.61,-4.98
148.5,2.8125,4.125,1.36,5.08,-5.35
147.6875,2.625,4.5625,0.76,5.67,-5.05
146.75,2.25,4.6875,0.74,5.77,-4.86
145.625,1.75,4.5,0.62,4.89,-3.67
144.3125,1.125,3.9375,0.72,4.04,-2.81
142.8125,0.5,3,0.93,2.92,-2.04
141.25,-0.0625,2,1.26,-0.31,-0.42
139.6875,-0.6875,1,0.94,-0.89,0.03
136.75,-1.4375,-0.4375,0.8,-1.35,0.15
135.3125,-1.75,-0.75,-0.1,-1.36,0.03
134.125,-1.9375,-0.75,-0.52,-1.06,-0.11
133.125,-2.125,-0.625,-0.98,-0.59,-0.17
132.125,-2.375,-0.3125,-1.13,-0.21,-0.23
131.1875,-2.75,0,-0.8,0.57,-0.05
130,-3.25,0.375,-0.36,0.85,0.2
129.125,-3.75,0.625,0.99,0.99,0.33
128.1875,-4.25,0.875,1.49,1.38,0.46
126.3125,-4.8125,1.1875,1.77,1.36,0.15
125.3125,-4.8125,1.25,1.63,1.41,-0.08
124.375,-4.6875,1.3125,1.48,1.52,-0.46
123.375,-4.5,1.3125,0.92,0,0
122.375,-4.1875,1.375,0.68,0,0
121.4375,-3.8125,1.3125,0.52,1.71,-2.48
120.375,-3.5,1.25,-0.31,1.84,-2.79
119.3125,-3.25,1.125,-0.75,1.96,-2.76
118.25,0,0,1.61,0,0
117.0625,0,0,-1.09,1.64,-2.22
115.9375,-3.0625,0.3125,-0.53,0.92,-1.7
114.75,-3.25,-0.0625,-0.12,0.46,-1.54
113.5625,0,0,0.19,0,-0.99
112.5,-3.625,-0.875,0.51,-0.23,-1.07
110.4375,-3.9375,-1.375,0.46,-0.05,-1.11
109.3125,-4,-1.4375,0.23,0.33,-1.1
108.375,-4.0625,-1.375,-0.24,0.97,-0.85
107.5,-4.1875,-1.1875,-0.63,1.84,0
106.5625,-4.375,-1.125,1.59,0,0
105.5,-4.5625,-1.125,-0.82,2.22,0.3
104.375,-4.8125,-1.3125,-0.45,1.78,0.88
103.3125,-5.0625,-1.6875,-0.13,1.32,1.09
102.125,0,0,0.33,0.27,1.18
101,0,0,-0.11,-0.06,1.15
99.875,-5.1875,-3.1875,-0.49,-0.1,0.88
98.75,-4.9375,-3.5625,-1.24,0.09,0.86
97.6875,-4.625,-3.875,-1.92,0.47,0.82
95.6875,-4.0625,-4.0625,-2.28,0.7,0.55
94.625,-3.9375,-4.125,-1.97,0.59,0.48
93.5625,-3.9375,-4.375,-1.49,0.3,0.48
92.5,-3.9375,-4.75,-1.16,0,0.79
91.4375,-4,-5.125,0.04,0,0
90.4375,-4,-5.5,0.27,0,0
89.4375,-3.8125,-5.8125,0.15,-1.04,0.5
88.5625,-3.5625,-5.9375,-0.54,-0.5,-0.08
87.75,-3.25,-5.9375,1.43,0,0
86.9375,-2.875,-5.8125,-1.62,0.48,0
86.1875,-2.625,-5.75,-1.75,0.78,0
85.375,-2.4375,-5.75,-1.87,1.09,-0.39
84.5,-2.4375,-5.875,-1.68,1.03,0.02
83.5625,-2.5,-6.0625,-1.57,0.87,0.67
82.625,0,0,-0.37,-0.23,2.17
81.6875,-2.75,-6.8125,0.39,-0.88,2.01
79.9375,-2.625,-7.4375,0.54,-1.09,1.9
79.1875,-2.4375,-7.6875,0.38,-0.91,1.85
78.4375,-2,-7.5,-0.6,-0.31,1.42
77.8125,-1.5,-7.3125,-1.11,0.01,1.02
77.1875,-1,-7.125,-1.75,0.44,0.77
76.3125,-0.625,-7,-2.5,0.66,0.59
75.625,-0.3125,-7.125,-2.41,0.51,0.53
74.9375,0,0,-2.02,0.14,0.46
74.1875,0,-7.5,-0.43,-1.17,0.45
73.5,0.0625,-7.6875,-0.07,-1.43,0.35
72.9375,0.25,-7.75,-0.08,-1.29,0.3
71.9375,0.75,-7.375,-0.18,-0.9,0.13
71.5,1.0625,-7.0625,-0.68,-0.01,-0.15
71.125,1.375,-6.75,-1.05,0.44,-0.2
70.6875,1.625,-6.5625,-1.16,0.71,-0.41
70.1875,1.8125,-6.4375,-1.35,0.89,-0.36
69.6875,1.9375,-6.4375,-1.27,0.81,0.05
69.0625,2.0625,-6.5625,-1.06,0.56,0.34
68.5,2.125,-6.8125,-0.59,0.1,0.46
67.9375,2.25,-7.0625,0.19,-0.73,0.55
67.4375,2.5,8.6875,0.31,-1.26,0.43
66.5625,3.1875,-7.4375,0.22,-1.29,0.11
66.1875,3.625,-7.375,-0.34,-0.96,-0.63
65.875,4.125,-7.1875,-0.88,-0.52,-1.02
65.625,4.5,-6.9375,-1.32,-0.15,-1.4
65.375,4.75,-6.8125,-1.63,0.18,-1.66
65.0625,4.875,-6.6875,-1.44,0.47,-1.83
64.75,4.8125,-6.75,-0.95,0.34,-1.87
64.375,4.75,-6.9375,-0.57,0.22,-1.68
64,4.625,-7.1875,0.19,-0.5,-0.87
63.625,4.5,-7.5625,0.1,-0.77,-0.58
63,4.4375,-8.25,-0.03,-0.99,-0.41
62.6875,4.4375,-8.5625,-0.67,-1.22,0
62.5,4.375,-8.75,-1.07,-1.08,0.36
62.3125,4.1875,-8.8125,-1.26,-0.86,0.68
62.125,3.875,-8.6875,-0.89,-0.8,0.67
62,3.5,-8.5,-0.34,-0.18,1.16
61.875,3.0625,-8.25,0.27,-0.02,1.07
61.75,2.75,-8,0.48,0.31,1.21
61.625,2.5,-7.8125,0.41,0.65,1.05
61.5,2.4375,-7.75,0.02,0.49,0.99
61.3125,2.5625,-7.8125,-0.47,0.29,1
60.9375,2.9375,-8.1875,-0.96,-0.16,1.02
60.75,3.125,-8.5,-1.41,-1.21,1
60.625,3.25,-8.75,-1.09,-1.91,0.62
60.625,3.375,-8.875,-1.18,-2.22,0.66
60.75,3.4375,-8.9375,-0.83,-2.37,0.28
61,3.4375,-8.75,-0.89,-2.08,0.28
61.375,3.4375,-8.375,-0.76,-1.07,0.12
61.8125,3.375,-7.8125,-0.57,0.23,0.1
62.3125,3.25,-7.1875,-0.58,1.09,0.3
62.8125,3.125,-6.4375,-0.17,1.61,0.16
63.6875,2.875,-5.1875,0.21,2,-0.1
64,2.8125,-4.6875,0.7,2.51,-0.57
64.1875,2.875,-4.375,0.64,2.54,-0.8
64.3125,3.0625,-4.1875,0.04,2.68,-0.66
64.375,3.3125,-4.1875,-0.54,2.63,-0.43
64.1875,3.5,-4.3125,-1.78,1.17,0.6
63.9375,3.625,-4.6875,-1.86,0.34,1.09
63.5625,3.6875,-5.0625,-1.14,-1.54,1.37
63.1875,3.625,-5.5,-1.16,-2.1,1.79
62.625,3.625,-6,-1.01,-2.63,1.85
62.5,3.625,-5.875,-0.97,-2.95,1.69
62.5625,3.75,-5.5,-1.38,-2.54,1.25
62.625,3.75,-4.8125,-1.62,-1.95,0.86
62.8125,3.75,-3.875,-1.67,-1.16,0.4
63.0625,3.625,-2.8125,-1.3,0.82,-0.3
63.1875,3.4375,-1.75,-1.17,1.27,-0.21
63.3125,3.25,-0.9375,-0.97,1.45,-0.04
63.3125,3.0625,-0.3125,-0.84,1.3,0.19
63,2.8125,0.125,-0.48,0.01,0.22
62.75,2.875,0.125,-0.82,-0.58,0.46
62.5,3,0.0625,-1.17,-1.17,0.52
62.3125,3.1875,0,-2.05,-2.31,0.55
62.1875,3.375,0,-2.45,-2.79,0.44
62.1875,3.5,0.125,-2.59,-3.12,0.24
62.375,3.5,0.4375,-2.69,-2.74,0.24
62.625,3.4375,1,-2.49,-2.14,0.3
63.125,3.1875,1.6875,-1.98,-1.54,0.24
64.3125,2.5,3.4375,-1.46,-0.74,0.22
65,2.125,4.375,-0.28,0.41,0.12
65.6875,1.8125,5.25,0.07,1.12,0.18
66.3125,1.625,6.125,0.41,1.7,0.1
66.875,1.5625,6.875,0.65,2.15,-0.19
67.375,1.6875,7.4375,0.37,2.68,-0.69
67.75,1.9375,7.8125,-0.31,2.63,-1.24
68,2.3125,8,-0.67,1.68,-1.87
68.25,2.625,8,-0.83,1.04,-2.04
68.3125,3,7.8125,-0.83,0.35,-2.22
68.375,3.5,7.3125,-0.84,-0.37,-2.34
68.4375,3.625,7.125,-1.15,-1.19,-2.18
68.5,3.75,6.9375,-1.49,-1.36,-1.78
68.6875,3.8125,6.875,-1.62,-1.54,-1.51
68.9375,3.75,6.875,-1.6,-1.7,-1.3
69.25,3.625,7.0625,-1.64,-1.44,-0.51
69.6875,3.375,7.3125,-1.44,-1.18,-0.18
70.1875,3.125,7.6875,-1.27,-0.82,0.26
70.75,2.75,8.125,-0.23,0,1.02
71.3125,2.5,8.5625,0.1,0.19,1.05
72.375,2.1875,9.3125,0.3,0.27,0.91
72.875,2.25,9.5625,0.34,0.3,0.28
73.3125,2.5,9.875,-0.11,0.5,0.16
73.75,2.8125,10.125,-0.77,0.68,0.13
74.1875,3.125,10.3125,-1.23,0.68,0
74.5625,3.375,10.5,-1.55,0.54,-0.32
74.875,3.5625,10.625,-1.47,0.29,-0.47
75.25,3.6875,10.75,-1.29,0.14,-0.56
75.5625,3.75,10.875,-0.81,-0.58,-0.98
76.375,3.9375,11.0625,-0.81,-0.68,-1.08
76.8125,4.0625,11.3125,-1.14,-0.6,-1.13
77.375,4.1875,11.5625,-1.45,-0.42,-1.12
77.9375,4.25,11.875,-1.69,-0.12,-1.31
78.5,4.3125,12.1875,-1.77,0.06,-1.24
79.1875,4.25,12.5,-1.68,0.28,-1.08
79.8125,4.125,12.8125,-1.4,0.64,-0.33
80.5,3.875,13.0625,-0.06,0.41,-0.41
81.125,3.625,13.3125,0.23,0.38,-0.24
82.375,3.375,13.75,0.34,0.47,-0.16
83,3.375,13.9375,0.16,0.4,-0.28
83.5625,3.5,14.1875,-0.25,0.47,-0.45
84.125,3.75,14.375,-0.7,0.52,-0.62
84.6875,3.9375,14.5625,-1.55,0.4,-0.97
85.25,4.125,14.75,-1.98,0.56,-0.8
85.875,4.1875,14.875,-2.16,0.62,-0.61
86.4375,4.125,15,-1.12,-0.07,-0.14
87.0625,3.9375,15,-0.57,-0.35,0
88.3125,3.5625,15,-0.12,-0.67,0.09
89,3.4375,15.125,0.27,-0.91,-0.04
89.75,3.5,15.25,-0.05,-0.79,-0.14
90.5,3.6875,15.5,-0.48,-0.64,-0.32
91.25,4,15.8125,-1.25,-0.21,-0.26
92.0625,4.25,16.125,-2.01,0.27,-0.46
93,4.4375,16.5,-2.06,0.55,-0.45
93.875,4.4375,16.8125,-1.67,0.62,-0.52
94.6875,4.375,17.125,0.03,0.42,-0.63
96.375,4.1875,17.5,0.48,0.37,-0.6
97.25,4.125,17.6875,0.71,0.35,-0.62
98.0625,4.25,17.875,0.61,0.53,-0.53
98.875,4.4375,18.0625,-0.18,0.85,-0.42
99.625,4.75,18.1875,-0.52,0.84,-0.5
100.3125,5,18.25,-0.86,0.78,-0.48
101.0625,5.25,18.25,-1.05,0.43,-0.46
101.75,5.4375,18.1875,-0.91,0.11,-0.48
102.4375,5.5625,18.1875,-0.5,-0.21,-0.41
104,5.8125,18.25,-0.06,-0.16,-0.38
104.875,5.9375,18.375,0.21,-0.01,-0.65
105.75,6.125,18.625,0,0.42,-0.55
106.6875,6.375,18.9375,-0.33,0.87,-0.53
107.625,6.625,19.1875,-0.81,1.53,-0.57
108.4375,6.9375,19.4375,-0.74,1.64,-0.74
109.3125,7.1875,19.625,-0.72,1.7,-0.89
110.125,7.375,19.6875,0.1,1.45,-1.29
111.625,7.6875,19.75,0.4,1.31,-1.4
112.3125,7.8125,19.75,0.69,1.15,-1.59
113.0625,7.9375,19.8125,0.62,1.06,-1.92
113.6875,8.1875,19.8125,0.09,1.24,-1.84
114.3125,8.5,19.8125,-0.5,1.36,-1.71
114.875,8.8125,19.6875,-1.35,0.56,-1.68
115.375,9.0625,19.5,-1.19,-0.07,-1.75
115.875,9.25,19.125,-0.89,-0.81,-1.8
116.375,9.375,18.6875,-0.83,-1.02,-1.91
117.5625,9.5,18,-0.26,-1.54,-1.86
118.3125,9.5,17.8125,-0.42,-1.24,-1.45
119.1875,9.4375,17.8125,-0.24,-0.98,-1.36
120.125,9.4375,18,-0.16,-0.48,-1.32
121.125,9.4375,18.25,-0.44,0.63,-1.16
122.125,9.4375,18.5,-0.45,1.47,-1.32
123.125,9.5,18.75,0.13,1.45,-1.9
124.0625,9.5625,18.875,0.29,1.41,-2.05
125.8125,9.625,18.75,0.31,1.34,-2.04
126.625,9.625,18.625,0.47,1.22,-2.19
127.375,9.625,18.5,0.46,1.26,-2.23
128.1875,9.625,18.4375,0.52,1.27,-2.31
128.875,9.5625,18.375,0.22,1.39,-2.17
129.5625,9.5625,18.25,-0.19,1.58,-1.64
130.8125,9.375,17.9375,-0.37,1.66,-1.23
131.4375,9.3125,17.625,-0.19,1.44,-1.13
132,9.125,17.25,-0.1,1.13,-0.95
132.5,8.9375,16.875,0.11,0.82,-0.46
133.0625,8.8125,16.5,0.28,0.57,-0.39
133.625,8.625,16.1875,0.37,0.53,-0.28
134.1875,8.5,15.9375,0.99,0.48,-0.68
134.75,8.4375,15.75,0.77,1.16,-0.67
135.375,8.3125,15.75,0.89,1.44,-0.97
136.5625,8.375,15.75,0.59,2.04,-1.33
137.125,8.375,15.75,0.42,2.29,-1.52
137.5625,8.5,15.625,0.31,2.36,-1.62
137.9375,8.5625,15.4375,0,2.21,-1.5
138.1875,8.5625,15.0625,0.36,1.3,-1.79
138.375,8.5625,14.4375,0.32,0.78,-1.68
138.5625,8.5,13.75,0.32,-0.25,-1.48
138.8125,8.5625,13.125,0.04,-0.48,-1.21
139.625,8.4375,12.375,-0.08,-0.36,-1.17
140.125,8.3125,12.25,-0.28,0.11,-0.92
140.625,8.0625,12.3125,0,1.16,-0.92
141.1875,7.75,12.3125,0.17,1.69,-0.87
141.6875,7.4375,12.25,0.51,2.02,-0.79
142.0625,7.0625,12.0625,0.88,2.17,-0.66
142.375,6.8125,11.75,1.13,2.07,0.35
142.5625,6.5,11.375,1.19,1.73,0.55
142.6875,6.3125,10.9375,1.31,1.36,0.57
142.9375,6.0625,10,1.25,0.85,0.58
143,6,9.6875,1.19,0.72,0.48
143.1875,6.0625,9.4375,1.08,0.62,0.29
143.3125,6.125,9.1875,0.91,0.65,0.1
143.5,6.125,9.0625,0.73,0.82,-0.47
143.6875,6.1875,8.9375,0.71,0.95,-0.78
143.875,6.1875,8.875,0.74,1.06,-1.15
144,6.125,8.875,0.13,1.92,-1.34
144.1875,6.0625,8.8125,0.09,2.12,-1.34
144.3125,5.5,8.5625,0.27,1.82,-1.54
144.3125,5.1875,8.25,0.58,0.92,-1.83
144.3125,4.75,8,0.52,0.47,-1.78
144.375,4.25,7.8125,0.32,0.22,-1.56
144.5,3.5625,7.8125,0.19,0.07,-1.3
144.75,2.8125,7.875,-0.23,0.69,0.09
145,1.8125,8.1875,0.25,1.15,0.7
145.25,0.6875,8.5625,0.6,1.92,1.73
145.5,-0.375,8.875,4.15,2.87,2.44
145.6875,-2.0625,9.375,4.73,3.18,2.52
145.5625,-2.375,9.375,5.27,3.1,2.07
145.3125,-2.3125,9.375,4.2,3.04,1.07
145,-1.875,9.1875,3.2,3.02,0.37
144.5,-1.3125,9,1.69,2.96,-0.11
143.875,-0.8125,8.75,0.45,2.73,-0.66
143.1875,-0.4375,8.4375,-1.35,2.12,-1.54
142.5,-0.25,7.9375,-1.99,1.68,-1.56
141.8125,-0.3125,7.3125,-1.92,0.54,-1.05
141.125,-0.625,6.6875,-0.58,-0.56,0.05
139.9375,-1.875,5.375,0.53,-1.2,0.41
139.4375,-2.5,4.875,1.21,-1.46,1.01
139.0625,-3,4.625,1.83,-1.46,1.44
138.75,-3.375,4.6875,2.26,-0.8,1.41
138.5,-3.4375,4.9375,2.27,-0.15,0.83
138.3125,-3.375,5.3125,1.99,0.6,0.08
138,-3.1875,5.875,-0.13,2.65,-0.49
137.6875,-3,6.25,-1.42,3.48,-0.76
136.6875,-3.125,6,-1.82,3.66,-0.54
136,-3.4375,5.1875,-1.25,2.41,0.44
135.3125,-3.875,4.125,-0.4,1.21,0.89
134.5,-4.375,2.8125,0.61,-0.27,1.32
133.75,-4.75,1.625,1.2,-1.39,1.93
133.0625,-5,0.6875,1.88,-2.81,2.77
132.5,-5.125,0.125,1.9,-2.93,2.97
132,-5.125,0,1.9,-2.64,2.81
131.625,0,0,1.57,-2.03,2.52
131.375,0,0,0.47,0.37,0.62
131.125,-4.3125,1.3125,0.1,1.2,-0.04
130.625,-3.6875,2.375,-0.38,2.51,-0.83
130.625,0,0,-0.16,2.71,-1.24
129.875,-3.625,2.5625,0.06,2.88,0
129.375,-3.75,2.25,0.47,2.77,0
128.6875,-4,1.8125,1.12,2.16,0
128,-4.3125,1.1875,1.28,1.82,0.8
127.1875,-4.5625,0.5625,1.53,1.25,1.39
126.375,-4.75,-0.0625,1.76,0.63,0
125.5,-4.8125,-0.75,1.95,0,0
124.625,-4.6875,-1.3125,2.08,-0.86,1.77
123.8125,-4.375,-1.75,1.73,-1.13,1.52
123.125,-3.9375,-2.0625,1.29,0,0
122.4375,0,0,-0.37,-0.88,-0.82
121.875,0,0,-0.76,-0.54,-1.44
121.3125,-2.625,-2.1875,-1.21,0.19,-1.91
120.75,-2.5,-2.0625,-0.91,0.5,-1.99
119.625,-2.8125,-1.875,-0.74,0.87,-1.59
119.0625,-3.25,-2,-0.45,1.12,0
118.4375,-3.75,-2.25,0.84,1.08,0.58
117.75,-4.25,-2.625,1.49,0.92,1.43
117,-4.6875,-3.0625,2.35,0.56,1.85
116.25,-4.875,-3.5625,3.03,0.2,0
115.4375,-4.75,-4,3.11,0,0
114.6875,-4.25,-4.4375,2.64,-0.22,1.8
113.875,-3.5,-4.75,2.01,-0.44,1.06
113.125,-2.5625,-5,0.76,0,0
112.375,0,0,-2.31,-0.17,-1.69
111.625,0,0,-3.07,-0.24,-1.94
110.875,0.125,-5.75,-3.08,-0.48,-1.84
110.125,0.5625,-6.0625,-2.3,-0.84,-1.68
108.625,0.4375,-6.875,-1.48,1.6,0
107.9375,0.0625,-7.25,-0.28,1.42,0
107.25,-0.25,-7.5625,1.38,-0.94,0.09
106.6875,-0.4375,-7.75,1.78,-0.65,0.24
106.125,-0.4375,-7.875,1.48,-0.01,0.45
105.5625,-0.1875,-7.9375,0.69,0.62,0.53
104.875,0.25,-8.125,-1.34,1.38,0.57
104.1875,0.75,-8.5625,-2.73,0.63,0.38
103.3125,1.3125,-9.1875,-2.88,-0.51,0.2
102.375,1.75,-10.0625,-2.25,-2.45,0.01
100.625,2.1875,-12.125,-1.65,-3.49,-0.04
99.9375,2.25,-12.875,-1.06,-4.1,-0.08
99.4375,2.1875,-13.3125,-0.13,-4.21,-0.47
99.0625,2.125,-13.3125,-0.46,-3.43,-0.33
98.9375,2,-12.9375,-0.61,0.22,0
98.9375,1.8125,3.6875,1.44,0,0
98.875,1.5,-11.5,-1.45,1.28,-0.19
98.75,1,-10.8125,-1.16,2.21,0.12
98.625,0.3125,-10.3125,0.93,2.73,0.33
98.3125,0,0,2.8,2.4,1.03
97.4375,-1.625,-10.3125,3.56,1.94,1.09
96.9375,-1.8125,-10.5625,3.66,1.63,1.33
96.375,-1.75,-10.9375,3.44,1.23,1.29
95.75,-1.375,-11.25,1.56,1.02,1.21
95.125,-0.8125,-11.5625,0.63,0.75,0.75
94.4375,-0.125,-11.875,-0.16,0.36,0.17
93.6875,0.4375,-12.25,-1.39,-0.4,-0.56
93,0.9375,-12.625,-1.56,1.62,0
92.3125,1.25,3,-1.55,-1.44,-1.21
91.6875,1.375,2.625,-0.85,-1.84,-1.01
91.125,1.3125,-13.5625,-0.57,-1.51,-0.66
90.625,1.0625,-13.5,-0.39,-0.9,-0.11
89.875,0.25,-13,-0.08,-0.3,0.24
89.5,-0.1875,-12.625,0.72,0.69,0.95
89.125,-0.6875,-12.3125,1.21,1.22,1.15
88.6875,-1.125,-12.0625,2.29,0.97,0.58
88.1875,-1.3125,-11.9375,2.58,1.11,0.53
87.75,0,0,1.94,1.19,0.55
87.1875,0,0,0.7,0.93,0.15
86.625,-0.6875,-12.0625,-0.39,0.56,-0.36
86.0625,-0.25,-12.25,-0.66,0.3,-0.7
85.4375,0.125,-12.4375,-0.81,0.12,-0.86
84.125,0.6875,-12.75,-0.99,-0.04,1.8
83.375,0.75,-12.9375,-0.67,-0.74,-0.64
82.6875,0.8125,-13.125,-0.53,-0.97,-0.33
82,0.75,-13.3125,-0.02,-1.4,-0.44
81.375,0.6875,-13.4375,0.2,-1.52,-0.3
80.8125,0.625,2.625,0.54,0,0
80.3125,0.5,-13.1875,0.48,-0.84,-0.14
79.875,0.5,-12.9375,0.41,-0.32,-0.15
79.5,0.4375,3.375,0.25,0.67,-0.57
79.0625,0.4375,-12.3125,0.22,0.88,-0.66
78.0625,0.5625,-11.9375,0.11,0.9,-0.77
77.3125,0.625,-11.9375,-0.01,0.59,-0.77
76.6875,0.6875,-12.0625,-0.08,0.32,-0.65
76,0.8125,-12.25,0,0,0
75.3125,0.875,-12.5,0.05,0,0
74.6875,0.9375,-12.6875,0.09,-0.86,-0.32
74,1,-12.8125,0,-0.95,-0.18
73.4375,1.0625,-12.9375,-0.05,-0.91,-0.07
72.875,1.125,-13,-0.14,1.69,0
72.3125,1.1875,-13,-0.14,1.74,0
71.8125,1.25,-13,0,-0.79,-0.3
71.3125,1.25,-12.9375,0.15,-0.83,-0.54
70.8125,1.3125,-12.875,0.28,0,0
70.4375,1.375,3.25,0.02,-0.03,-1.2
70,1.4375,3.5,-0.18,0.39,-1.3
69.625,1.4375,-12.25,-0.5,1.05,-1.55
69.1875,1.4375,-12,-0.59,1.29,-1.61
68.25,1.375,-11.625,-0.57,1.42,-1.63
67.625,1.3125,-11.625,1.79,0,0
67,1.25,-11.8125,-0.93,0.81,-1.08
66.3125,1.125,-12.1875,-0.94,0.33,-0.76
65.5,1.0625,-12.5625,-1.6,-0.13,-0.03
64.8125,1.0625,-13.125,-1.38,1.78,0
64.0625,0.9375,-13.75,0.53,0,0
63.3125,0.875,-14.1875,-1.65,-2.33,0.84
62.6875,0.75,-14.75,-1.35,-2.85,0.65
62.125,0.6875,-15.125,-1.36,-3.1,0.75
61.75,0.5,-15.3125,-1.53,-2.72,0.59
61.3125,0.0625,-15.125,-1.51,-2.28,0.39
61.25,-0.125,-14.8125,-1.72,-1.2,0.09
61.25,-0.4375,-14.5,-1.87,-0.66,0.18
61.25,-0.75,-14.1875,-1.91,-0.27,0.41
61.1875,-1.125,-14,-1.45,-0.13,0.47
61.125,-1.5625,-13.875,-1,-0.11,1.38
60.875,-2,-13.9375,-0.27,-0.53,1.58
60.75,-2.375,-14.1875,0.18,-0.96,1.89
60.625,-2.5625,-14.5,0.69,-2.09,1.79
60.5625,-2.375,-15.0625,0.46,-2.38,1.22
60.75,-1.9375,-15.3125,-0.23,-2.42,0.65
61,-1.25,-15.5,-2.36,-2.16,-0.18
61.3125,-0.5,-15.625,-3.48,-1.97,-0.47
61.75,0.125,-15.8125,-3.88,-2.05,-0.87
62.0625,0.5,-15.875,-4.3,-1.94,-0.69
62.4375,0.6875,-15.875,-3.66,-1.8,-0.14
62.8125,0.5,-15.8125,-1.85,-1.63,0.87
63.125,0.125,-15.6875,-0.85,-1.44,1.42
64.0625,-0.75,-15.375,0.98,-1.16,1.76
64.8125,-0.75,-15.125,1.44,-0.81,1.61
65.5,-0.75,-14.9375,1.44,-0.49,1.31
66.1875,-0.4375,-14.625,0.93,-0.01,0.95
66.9375,0.0625,-14.375,-0.46,0.64,-0.41
67.5625,0.9375,-14.1875,-1.47,0.8,-0.99
68.125,1.6875,-14.125,-3.41,0.64,-1.6
68.5625,2.25,-14.1875,-3.5,0.26,-1.32
69.25,2.75,-14.75,-3.03,-0.3,-0.96
69.5,2.6875,-15.1875,-2.38,-0.91,-0.42
70,2.5625,-15.5625,-0.48,-2.04,0.29
70.5,2.4375,-15.875,0.27,-2.45,0.45
71.0625,2.5625,-15.9375,0.75,-2.64,0.38
71.8125,2.875,-15.8125,0.53,-2.51,0.36
72.625,3.3125,-15.5625,-0.78,-1.7,-0.32
73.5625,3.875,-15.0625,-2.8,-0.29,-1.21
74.5,4.3125,-14.4375,-3.41,0.37,-1.72
76.125,4.5,-13.125,-3.42,1.09,-2.46
76.8125,4.25,-12.6875,-2.9,1.24,-2.55
77.5,3.875,-12.375,-2.42,1.27,-2.34
78.125,3.4375,-12.25,-1.1,0.85,-1.6
78.6875,2.9375,-12.25,-0.66,0.66,-1.11
79.25,2.5625,-12.25,-0.28,0.39,-0.67
79.875,2.3125,-12.375,-0.17,0.11,-0.26
80.5,2.1875,-12.4375,-0.57,-0.34,0.47
81.1875,2.0625,-12.4375,-1.35,-0.24,0.54
82.625,2.0625,-12.0625,-1.29,-0.34,0.13
83.375,2.0625,-11.75,-1.82,0.14,-0.11
84.1875,2,-11.4375,-1.64,0.31,-0.46
85,1.875,-11.125,-1.58,0.54,-0.69
85.8125,1.75,-10.875,-1.64,0.77,-0.73
86.625,1.625,-10.625,-1.59,1.07,-0.86
87.375,1.4375,-10.375,-1.56,1.18,-0.79
88.1875,1.1875,-10.25,-1.55,1.51,-0.02
88.875,0.9375,-10.0625,-1.13,1.4,0.09
90.25,0.3125,-9.9375,-0.83,1.38,0.44
90.875,0,-9.9375,-0.43,1.19,0.55
91.5,-0.1875,-9.875,0.1,0.92,0.64
92.1875,-0.25,-9.8125,0.18,0.8,0.6
92.8125,-0.1875,-9.8125,-0.05,0.83,0.59
93.4375,-0.0625,-9.75,-0.29,0.63,0.31
94.125,0.125,-9.75,-1.13,0.42,-0.06
94.75,0.375,-9.75,-1.46,0.22,-0.41
95.375,0.625,-9.6875,-2.22,-0.01,-0.72
96.75,0.75,-9.625,-2.59,-0.02,-0.54
97.4375,0.5625,-9.5,-2.31,-0.06,-0.49
98.0625,0.3125,-9.375,-2.11,0,-0.22
98.75,0,-9.1875,-1.22,-0.2,0.15
99.5625,-0.3125,-9.0625,-0.88,-0.15,0.37
100.3125,-0.5625,-8.8125,-0.52,-0.11,0.43
101.1875,-0.8125,-8.5625,-0.25,0,0.38
102.0625,-0.875,-8.1875,-0.29,0.44,0.09
102.9375,-0.875,-7.8125,-0.98,1.23,-0.12
103.8125,-0.75,-7.4375,-1.23,1.48,-0.36
105.5625,-0.5625,-6.8125,-1.11,1.55,-0.99
106.3125,-0.5,-6.625,-1.88,1.88,-0.48
107,-0.5,-6.5625,-2.04,1.87,-0.23
107.75,-0.5625,-6.5625,-1.26,1.41,-0.69
108.4375,-0.6875,-6.625,-0.83,0.81,-0.34
109.125,-0.75,-6.75,-0.23,0.36,-0.5
109.8125,-0.8125,-6.8125,-0.11,0.14,-0.35
110.5625,-0.8125,-6.75,-0.51,0,-0.56
112.1875,-0.5625,-6.5625,-1.03,0.21,-0.51
113.0625,-0.4375,-6.375,-1.33,0.42,-0.64
113.9375,-0.3125,-6.125,-1.96,1.03,-0.46
114.8125,-0.375,-5.9375,-1.77,1.04,-0.55
115.625,-0.5,-5.75,-1.46,1.16,-0.47
116.5,-0.6875,-5.625,-0.9,1.01,-0.56
117.3125,-0.9375,-5.5625,-0.07,0.82,-0.43
118.1875,-1.0625,-5.4375,0.26,0.81,-0.41
119,-1.125,-5.3125,0.17,1.04,-0.22
120.75,-1.0625,-5,-0.43,1.55,0.05
121.5625,-1,-4.8125,-0.63,1.7,0.08
122.3125,-0.875,-4.6875,-0.94,1.85,0.35
123.0625,-0.8125,-4.6875,-0.49,1.47,0.13
123.75,-0.75,-4.6875,-0.37,1.15,0.15
124.5,-0.6875,-4.8125,-0.14,0.87,-0.02
125.1875,-0.4375,-4.9375,-0.18,0.66,-0.07
125.875,-0.1875,-5,-0.82,0,-0.84
126.625,0.125,-5.125,-1.36,-0.13,-1.09
128.1875,1,-5.25,-1.93,-0.19,-1.29
129.0625,1.3125,-5.25,-2.5,-0.16,-1.57
129.9375,1.4375,-5.125,-2.52,-0.1,-1.6
130.8125,1.375,-4.9375,-2.35,0.06,-1.56
131.75,1.125,-4.6875,-1.91,0.22,-1.56
132.75,0.8125,-4.375,-1.03,0.87,-1.18
133.75,0.4375,-4,-0.25,1.62,-0.88
134.8125,0.125,-3.625,0.1,2.17,-0.74
135.8125,-0.125,-3.3125,0,2.48,-0.54
137.625,-0.375,-2.875,-0.1,2.56,-0.44
138.375,-0.4375,-2.875,-0.12,2.4,-0.51
139.1875,-0.4375,-2.9375,-0.22,1.85,-0.53
139.9375,-0.375,-3.125,-0.33,1.48,-0.5
140.625,-0.3125,-3.3125,-0.48,1.1,-0.51
141.3125,-0.25,-3.5,-0.36,0.69,-0.6
142,-0.125,-3.625,-0.82,0.41,-0.39
142.8125,-0.0625,-3.6875,-0.85,0.35,-0.48
143.625,-0.0625,-3.625,-0.84,0.47,-0.57
145.3125,-0.0625,-3.3125,-0.85,0.89,-0.65
146.1875,-0.0625,-3,-0.94,1.21,-0.58
147.25,-0.125,-2.75,-1.09,1.58,-0.4
148.125,-0.25,-2.5,-0.93,2.01,-0.2
149,-0.375,-2.25,-0.55,2.12,-0.17
149.8125,-0.5,-2.125,-0.21,2.13,-0.07
150.625,-0.625,-2.0625,0.19,2.05,-0.15
151.5,-0.625,-2.0625,0.49,1.71,-0.26
152.1875,-0.5,-2.125,0.31,1.62,-0.37
153.625,0,-2.375,-0.05,1.5,-0.44
154.25,0.25,-2.5,-1,1.14,-0.41
155,0.6875,-2.75,-1.4,0.87,-0.45
155.625,1.0625,-3,-1.68,0.49,-0.49
156.25,1.375,-3.3125,-1.92,0.08,-0.43
157,1.6875,-3.625,-1.52,-0.84,-0.7
157.6875,1.9375,-3.875,-1.39,-1.09,-0.84
158.5625,2.1875,-4,-1.47,-1.06,-0.91
159.5625,2.4375,-4,-2.1,-0.16,-1.07
161.6875,2.9375,-3.625,-2.36,0.44,-1.02
162.8125,3.125,-3.375,-2.51,0.98,-0.84
164.0625,3.1875,-3.1875,-2.14,1.55,-0.56
165.1875,3.25,-3.1875,-1.56,1.56,-0.57
166.25,3.25,-3.3125,-1.12,1.39,-0.42
167.25,3.3125,-3.5,-0.64,1.14,-0.37
168.3125,3.5,-3.75,-0.52,0.65,-0.35
169.375,3.8125,-4,-0.75,0.62,-0.66
170.4375,4.25,-4.1875,-1.07,0.67,-1.06
172.6875,5.25,-4.3125,-1.96,1.08,-1.59
173.8125,5.6875,-4.375,-2.26,1.26,-1.82
175.125,6.0625,-4.375,-2.78,1.62,-1.57
176.25,6.1875,-4.375,-2.65,1.96,-0.96
177.3125,6.25,-4.4375,-2.2,2.03,-0.64
178.4375,6.0625,-4.5,-1.43,1.97,-0.43
179.5,5.875,-4.6875,0.54,1.78,0.12
180.5625,5.6875,-4.8125,0.72,1.81,0.25
181.5625,5.625,-4.9375,0.6,1.8,0.36
183.625,6,-5.25,0.44,1.59,0.11
184.625,6.5,-5.5,-0.3,1.28,-0.63
185.625,7.125,-5.75,-0.93,1.16,-1.05
186.625,7.75,-6,-1.82,1.25,-1.2
187.6875,8.375,-6.25,-2.32,1.3,-1.5
188.6875,8.8125,-6.4375,-2.96,1.47,-1.64
189.625,9.125,-6.6875,-2.35,1.29,-1.52
190.625,9.25,-6.9375,-1.21,0.92,-0.87
191.5625,9.1875,-7.3125,-0.78,0.71,-0.5
193.4375,9,-8.0625,-0.38,0.5,-0.21
194.4375,9,-8.5,0,0.25,-0.34
195.5625,9.125,-8.8125,-0.39,0.25,-0.62
196.625,9.4375,-9.0625,-0.89,0.33,-0.93
197.6875,9.8125,-9.1875,-1.57,0.54,-1.18
198.875,10.1875,-9.375,-2.13,0.75,-1.45
200,10.5,-9.4375,-2.85,1.31,-1.56
201.1875,10.625,-9.625,-2.94,1.55,-1.33
202.3125,10.6875,-9.875,-2.08,1.65,-0.71
204.5625,10.3125,-10.625,-0.79,1.76,0.25
205.625,10.125,-11,0.3,1.43,0.26
206.75,10,-11.4375,1.06,1.31,0.21
207.875,10,-11.75,1.64,1.56,-0.14
209,10.25,-12.0625,1.46,1.72,-0.64
210.1875,10.75,-12.3125,0.39,2.15,-1.93
211.3125,11.4375,-12.5625,-1.49,2.47,-2.81
212.375,12.25,-12.8125,-2.05,2.4,-3.31
214.4375,13.75,-13.6875,-2.61,2.22,-3.47
215.3125,14.1875,-14.375,-2.62,1.78,-3.5
216.1875,14.375,-15.125,-1.91,1.25,-2.98
217,14.25,-15.875,-1.31,1.07,-2.34
217.875,13.9375,-16.4375,-0.55,1.18,-1.65
218.75,13.375,-16.875,0.27,1.42,-0.85
219.6875,12.6875,-17.0625,2.44,2.96,0.93
220.625,12.0625,-17.0625,3.62,3.03,0.38
221.5625,11.5625,-17,3.35,3.73,0
223.1875,11.4375,-17,2.49,3.97,-0.19
223.9375,11.9375,-17.1875,1.69,3.71,-0.77
224.4375,12.625,-17.5625,1.22,3.06,-1.88
224.875,13.4375,-18.125,-1.12,2.13,-2.44
225.1875,14.3125,-18.9375,-1.47,0.95,-3.18
225.375,15,-19.8125,-2.9,-0.61,-2.61
225.75,15.8125,-21.9375,-2.96,-2.25,-1.91
225.9375,15.875,-22.8125,-2.58,-2.83,-1.42
226.3125,15.6875,-23.5625,-2.03,-3.21,-0.94
226.8125,15.25,-24.125,-1.88,-3.18,-0.14
227.5625,14.75,-24.375,-0.97,-2.3,0.78
228.4375,14.1875,-24.4375,-0.55,-1.64,0.95
229.5,13.5625,-24.25,0.69,0.87,-0.07
230.6875,13.0625,-23.9375,0.72,1.8,-0.62
233.125,12.375,-22.8125,0.68,2.73,-1.31
234.3125,12.25,-22.375,0.27,3.59,-1.74
235.375,12.25,-22.125,-0.16,3.96,-2.59
236.1875,12.375,-22.125,-1.09,4.16,-2.3
236.875,12.5,-22.4375,-0.76,3.48,-2.76
237.25,12.5,-22.9375,-0.43,1.66,-1.37
237.4375,12.5,-23.625,0.43,0.77,-1.06
237.1875,11.8125,-24.625,0.58,0.34,-0.23
237.1875,11.4375,-25,1.39,-0.11,0
237.1875,11.25,-25,1.11,-0.16,0.94
237.4375,11.125,-25,0.79,0,1.11
237.5625,11.125,-24.9375,0.28,0.19,1.19
237.75,11.125,-24.8125,-0.07,0.06,0.07
238.125,11.1875,-24.6875,-0.45,0.4,-0.85
238.625,11.125,-24.25,-0.8,0.46,-1.04
238.875,11,-24.0625,-0.73,0.8,-1.11
239,10.75,-23.8125,-0.46,0.84,-1.11
239.1875,10.375,-23.625,-0.06,0.82,-1.05
239.375,10,-23.4375,0.27,1.03,-0.69
239.5,9.5625,-23.1875,0.85,1.31,0.1
239.5625,9.1875,-23.0625,1.55,1.46,0.68
239.6875,8.875,-22.9375,1.92,1.45,0.75
239.9375,8.5,-22.75,2.35,1.46,0.51
240.125,8.5,-22.5625,2.32,1.6,0.33
240.1875,8.625,-22.4375,2.17,1.68,0.01
240.3125,8.8125,-22.25,1.56,1.97,-0.57
240.375,9,-22.0625,1.1,2.14,-0.72
240.375,9.25,-21.9375,0.83,2.03,-1.04
240.375,9.4375,-21.875,0.24,1.66,-1.16
240.3125,9.5,-21.9375,0.24,1.42,-1.07
240.125,9.5,-21.9375,0.35,1.26,-0.78
239.75,9.1875,-21.9375,0.58,1.12,-0.47
239.5625,8.875,-21.875,1.38,0.82,0.09
239.25,8.625,-21.6875,1.79,0.83,0.3
239.125,8.375,-21.4375,2.21,0.87,0.3
239,8.25,-21.0625,2.38,1.15,0.26
238.9375,8.1875,-20.6875,2.14,1.73,0.05
238.8125,8.3125,-20.3125,1.44,2.27,-0.38
238.6875,8.5,-20.0625,0.74,2.44,-0.85
238.5,8.6875,-19.875,0.57,2.34,-1.09
237.875,9.0625,-19.6875,0.52,2.14,-1.24
237.5,9.1875,-19.6875,0.55,1.85,-1.28
236.875,9.25,-19.6875,0.6,1.46,-0.9
236.4375,9.25,-19.6875,0.87,1.13,-0.77
235.9375,9.1875,-19.625,1.07,0.96,-0.6
235.5,9.125,-19.5,1.46,0.82,-0.55
235.0625,9.0625,-19.1875,1.79,1.28,-0.7
234.6875,9.125,-18.8125,1.64,1.63,-0.96
234.3125,9.1875,-18.3125,1.28,2.06,-1.2
233.6875,9.5625,-17.3125,0.37,2.85,-1.56
233.25,9.75,-16.875,-0.1,3.19,-1.52
232.625,9.8125,-16.5,-0.43,3.38,-1.33
231.9375,9.875,-16.375,-0.15,2.96,-1
231.1875,9.8125,-16.3125,0.2,2.48,-0.75
230.3125,9.75,-16.3125,1.06,1.53,-0.31
229.4375,9.75,-16.375,1.6,0.75,-0.49
228.625,9.8125,-16.375,1.62,0.61,-0.91
227.1875,10.3125,-15.8125,1.38,0.78,-1.37
226.625,10.6875,-15.3125,0.98,1.13,-2.02
226,11.125,-14.5625,-0.22,2.16,-3.07
225.4375,11.4375,-13.875,-0.86,2.82,-3.49
224.75,11.6875,-13.125,-1.06,3.1,-4.09
224,11.8125,-12.4375,-1.71,3.54,-4.08
223.125,11.8125,-12,-1.81,3.47,-3.71
222.0625,11.625,-11.75,-1.47,2.97,-3.4
219.625,11.0625,-11.75,-1.41,2,-1.98
218.3125,10.75,-12,-1.03,1.27,-1.54
217,10.4375,-12.25,-0.94,0.71,-0.9
215.6875,10.125,-12.5,-0.92,0.14,-0.43
214.4375,9.9375,-12.5625,-1.21,-0.5,0.26
213.375,9.8125,-12.5,-1.45,-0.59,0.47
212.375,9.625,-12.25,-1.61,-0.43,0.23
210.5625,9.375,-11.25,-1.57,0.18,-0.37
209.625,9.1875,-10.5625,-1.55,0.66,-0.63
208.875,9,-9.875,-1.66,1.26,-0.72
208.0625,8.8125,-9.125,-1.58,1.81,-0.91
207.125,8.625,-8.4375,-1.65,2.48,-0.89
206.25,8.4375,-7.9375,-1.66,2.84,-0.74
205.25,8.3125,-7.6875,-1.27,2.8,-0.81
204.125,8.1875,-7.5625,-1.08,1.72,-0.44
202.9375,8.1875,-7.6875,-1.18,0.95,-0.46
200.5,8.5,-8.25,-1.33,0.13,-0.66
199.25,8.75,-8.5,-3.25,-0.28,0.16
198,9,-8.75,-3.09,-1.21,-0.5
196.9375,9.0625,-9,-2.8,-1.64,-0.95
195.9375,9.0625,-8.9375,-3.12,-1.58,-0.72
195,8.875,-8.75,-2.99,-1.69,-1.01
194.3125,8.625,-8.5,-2.88,-1.41,-1.05
193.625,8.1875,-8.0625,-2.41,-0.95,-1.49
193,7.6875,-7.5625,-2.16,0.05,-1.21
191.9375,6.3125,-6.1875,-2.01,0.65,-0.86
191.4375,5.5,-5.5,-1.81,1.32,-0.3
190.9375,4.625,-5,-0.88,1.79,0.35
190.3125,3.875,-4.625,-0.35,1.89,0.67
189.75,3.1875,-4.375,0.27,1.83,0.84
189.125,2.6875,-4.3125,0.7,1.72,0.85
188.4375,2.4375,-4.1875,0.87,1.46,0.56
187.75,2.375,-4.125,0.22,1.45,-0.2
187.0625,2.5,-4,-0.42,1.48,-0.68
185.625,3.125,-3.8125,-1.73,1.69,-1.59
184.75,3.4375,-3.75,-2.26,1.62,-1.88
183.875,3.6875,-3.75,-2.56,1.47,-2.13
183,3.75,-3.875,-2.67,1.14,-2.29
182.0625,3.6875,-4.0625,-2.73,0.73,-1.6
181.1875,3.4375,-4.25,-2.69,0.52,-0.93
180.25,3.0625,-4.5,-2.44,0.31,-0.21
179.375,2.625,-4.75,-0.57,-0.57,1.1
178.5,2.1875,-5.0625,-0.15,-0.79,1.33
176.875,1.5625,-5.375,0.26,-1.05,1.29
176.0625,1.5625,-5.4375,0.41,-1.12,0.5
175.5,1.75,-5.25,-0.1,-0.76,0.18
175,2.0625,-5,-0.85,-0.17,-0.03
174.5,2.4375,-4.6875,-1.47,0.31,-0.36
174.0625,2.75,-4.3125,-2.25,1.11,-0.8
173.5625,2.875,-3.9375,-1.82,1.48,-1.27
173.0625,2.9375,-3.625,-1.7,1.69,-1.1
171.875,2.6875,-3.375,-0.73,1.38,-0.95
171.1875,2.5,-3.4375,-0.39,1.22,-0.66
170.5,2.3125,-3.5,-0.2,1.13,-0.25
169.8125,2.25,-3.6875,0.23,0.51,-0.17
169.125,2.1875,-3.8125,0.11,0.39,-0.16
168.5,2.3125,-3.9375,-0.4,0.33,-0.48
167.8125,2.4375,-4,-1.16,0.67,-0.7
167.1875,2.625,-3.9375,-1.51,0.86,-0.77
166.625,2.75,-3.9375,-1.78,0.97,-0.75
165.3125,2.8125,-3.9375,-1.74,0.93,-0.7
164.625,2.75,-4.0625,-1.62,0.86,-0.23
163.9375,2.625,-4.25,-1.38,0.53,-0.04
163.1875,2.4375,-4.5,-0.95,0.18,0.13
162.5,2.25,-4.8125,-0.56,-0.2,0.24
161.8125,2.125,-5.0625,-0.23,-0.8,0.31
161.25,2.0625,-5.25,-0.62,-0.57,0.47
160.6875,2.0625,-5.1875,-0.8,0,0
160.1875,2.0625,-5.0625,-0.98,0.46,-0.14
159.375,2,-4.5,-0.89,0.85,-0.41
158.9375,1.875,-4.1875,-1.07,1.31,-0.38
158.5,1.8125,-3.9375,-0.95,1.67,-0.24
157.9375,1.625,-3.8125,-0.81,1.65,-0.11
157.375,1.5,-3.8125,-0.52,1.48,-0.1
156.75,1.375,-3.875,-0.09,0.54,0
156.125,1.3125,-4.0625,-0.21,0.28,0.06
155.5,1.25,-4.3125,-0.36,0.1,0.12
154.875,1.3125,-4.4375,-0.5,-0.02,0.01
153.6875,1.5,-4.5625,-0.97,0.19,-0.03
153.1875,1.5,-4.5,-1.06,0.36,-0.08
152.625,1.5625,-4.375,-1.05,0.52,-0.19
152.125,1.5,-4.25,-0.84,0.77,-0.29
151.625,1.4375,-4.1875,-0.61,0.73,-0.38
151.0625,1.3125,-4.0625,-0.24,0.65,-0.48
150.5625,1.25,-4,-0.24,0.62,-0.4
150,1.1875,-3.9375,-0.33,0.71,-0.34
148.9375,1.125,-3.75,-0.29,0.76,-0.45
148.375,1.0625,-3.625,-0.32,0.88,-0.49
147.875,1,-3.6875,-0.45,1.08,-0.46
147.3125,0.9375,-3.625,-0.48,1.11,-0.42
146.6875,0.9375,-3.5625,-0.44,1.04,-0.48
146.0625,0.9375,-3.625,-0.36,0.91,-0.58
145.4375,0.9375,-3.6875,-0.45,0.27,-0.87
144.8125,1,-3.8125,-0.5,0.1,-1.08
144.125,1,-3.875,-0.99,0.17,-1.06
143.5,1.0625,-3.9375,-1.14,0.34,-0.99
142.375,0.9375,-3.875,-1.19,0.57,-0.78
141.8125,0.75,-3.8125,-1.06,0.67,-0.63
141.3125,0.5,-3.75,-0.47,0.7,-0.35
140.75,0.25,-3.75,0.05,0.47,-0.42
140.1875,0,-3.75,0.26,0.38,-0.45
139.6875,-0.1875,-3.75,0.55,0.52,-0.93
139.25,-0.25,-3.6875,0.23,0.99,-0.92
138.6875,-0.3125,-3.5,-0.12,1.55,-0.88
137.8125,-0.3125,-3,-0.33,1.97,-1.04
137.3125,-0.375,-2.75,-0.38,2.34,-1.24
136.75,-0.5,-2.625,-0.26,2.3,-1.25
136.0625,-0.625,-2.6875,-0.17,2.09,-1.08
135.3125,-0.75,-2.8125,-0.09,1.44,-0.62
134.5625,-0.875,-3.0625,-0.14,1.06,-0.29
133.8125,-0.9375,-3.375,-0.29,0.51,0.31
133.0625,-1,-3.6875,-0.21,0,0.45
132.0625,-1.0625,-4,-0.11,-0.23,0.28
130.625,-0.9375,-4.5,-0.09,-0.43,-0.01
130,-0.8125,-4.625,-0.06,-0.63,-0.48
129.375,-0.6875,-4.6875,-0.48,-0.5,-1.36
128.625,-0.5,-4.5625,-0.98,-0.07,-1.53
128.125,-0.375,-4.3125,-1.47,0.47,-1.63
127.625,-0.3125,-4,-1.84,1.95,-1.18
127.0625,-0.5,-3.6875,-1.38,2.05,-0.9
126.5,-0.8125,-3.4375,-0.84,1.97,-0.51
125.875,-1.25,-3.4375,0.43,1.17,-0.01
124.375,-2.125,-3.8125,0.84,0.74,0.2
123.625,-2.4375,-4.125,1.22,0.29,0.18
122.8125,-2.625,-4.375,1.15,0.03,0.17
122.0625,-2.625,-4.5625,0.2,0.1,-0.02
121.3125,-2.5625,-4.5,-0.42,0.34,-0.34
120.625,-2.375,-4.3125,-1.52,1.12,-1.03
119.9375,-2.25,-4.0625,-1.89,1.69,-1.52
119.25,-2.1875,-3.8125,-1.67,1.74,-1.65
117.75,-2.6875,-3.5625,-1.43,1.67,-1.56
116.9375,-3.0625,-3.5625,-1.11,1.57,-1.27
116.0625,-3.5,-3.625,-0.21,1.2,-0.71
115.1875,-4,-3.6875,0.04,1.09,-0.37
114.3125,-4.375,-3.75,0.26,1.07,-0.03
113.375,-4.6875,-3.75,0.06,1.27,0.64
112.5,-4.875,-3.75,-0.22,1.44,0.83
110.5625,-5.125,-3.75,-0.49,1.5,0.91
109.375,-5.125,-3.8125,-1.02,1.41,1.04
108.3125,-5.1875,-3.875,-1.16,1.23,1.07
107.25,-5.1875,-4.0625,-1.16,0.99,1.01
106.25,-5.1875,-4.25,-1.01,0.62,0.85
105.1875,-5.125,-4.4375,-0.76,0.06,0.52
104.125,-5.0625,-4.5,-0.94,0.09,0.57
103.1875,-5,-4.5,-1.22,0.51,0.72
102.25,-5,-4.375,-1.15,0.93,0.66
100.3125,-5,-4.1875,-0.96,1.01,0.51
99.0625,-4.9375,-4.0625,-1.14,1.26,0.85
98.125,-4.875,-4,-0.94,1.55,1.14
97.0625,-4.8125,-3.9375,-0.62,1.53,1.06
96.0625,-4.625,-3.875,-0.33,1.53,0.95
95.0625,-4.375,-3.875,0.06,1.57,0.66
94.0625,-4.0625,-3.8125,0.24,1.76,-0.08
93.0625,-3.625,-3.75,-0.65,2.26,-0.69
92,-3.0625,-3.6875,-1.27,2.34,-1
89.625,-2,-3.8125,-2.43,2.39,-1.16
88.375,-1.625,-4.125,-3.01,2.22,-0.95
87.0625,-1.3125,-4.5,-3.2,1.77,-0.74
85.8125,-1.1875,-5.125,-3.27,1.28,-0.26
84.4375,-1.25,-5.75,-2.25,-0.05,0.5
83.125,-1.25,-6.375,-1.86,-0.56,1.07
81.9375,-1.25,-7,-1.44,-1.01,1.55
80.8125,-1.125,-7.375,-0.66,-1.53,1.44
79.75,-0.9375,-7.625,-0.69,-1.37,1.1
78,-0.0625,-7.625,-1.21,-0.99,0.83
77.25,0.4375,-7.4375,-1.89,-0.18,-0.23
76.5625,0.9375,-7.1875,-2.47,0.35,-0.52
75.8125,1.375,-7,-2.65,0.66,-1.11
75.0625,1.6875,-6.8125,-2.57,0.9,-1.64
74.25,1.8125,-6.6875,-2.78,1.41,-1.52
73.375,1.875,-6.6875,-2.67,1.45,-1.2
72.4375,1.8125,-6.875,-2.22,1.06,-0.34
71.375,1.6875,-7.1875,-1.82,0.26,0.81
69.3125,1.75,-8.3125,-1.01,-0.69,0.56
68.375,2,-8.9375,-1.52,-0.95,1.19
67.4375,2.375,-9.5625,-1.64,-1.89,0.97
66.6875,2.875,-9.9375,-1.92,-2.15,0.51
66,3.375,-10.1875,-2.47,-2.01,0.17
65.3125,3.875,-10.125,-2.88,-1.78,-0.28
64.75,4.3125,-9.9375,-4.21,-0.5,-1.12
64.25,4.625,-9.8125,-4.32,-0.26,-1.12
63.1875,4.75,-9.6875,-4.14,-0.25,-1.07
62.6875,4.625,-9.9375,-3.11,-0.42,-0.71
62.125,4.4375,-10.125,-2.47,-0.79,-0.49
61.6875,4.1875,-10.4375,-1.97,-1.04,-0.14
61.25,4,-10.6875,-1.59,-1.11,0.13
60.875,3.875,-10.875,-1.32,-1.17,0.6
60.5625,3.875,-11,-1.23,-1.3,0.31
60.3125,3.9375,-11.125,-1.68,-1.14,-0.18
59.9375,4.3125,-11.25,-1.93,-1.12,-0.55
59.875,4.5,-11.25,-2.24,-1.03,-0.78
59.8125,4.625,-11.3125,-2.48,-0.93,-1.01
59.6875,4.625,-11.375,-2.62,-0.77,-0.98
59.625,4.5,-11.5,-2.37,-0.74,-0.91
59.625,4.3125,-11.625,-2.2,-0.71,-0.54
59.625,4,-11.875,-0.53,-1.08,0.22
59.625,3.6875,-12.125,-0.02,-1.16,0.45
59.6875,3.375,-12.3125,0.5,-1.22,0.43
59.875,3.0625,-12.5625,0.73,-1.36,0.32
60.0625,3.125,-12.625,0.43,-1.19,-0.08
60.25,3.3125,-12.625,-0.14,-1.06,-0.38
60.6875,3.5625,-12.625,-0.74,-0.95,-0.79
60.9375,3.75,-12.625,-1.63,-0.9,-1.57
61.1875,3.875,-12.625,-2.25,-0.79,-1.54
61.4375,3.8125,-12.6875,-1.86,-1.22,-1.83
61.6875,3.5625,-12.75,-1.29,-1.38,-1.11
62.25,2.5,-12.8125,-0.97,-1.17,-0.47
62.5625,1.75,-12.75,-0.51,-1.09,0.15
62.875,1,-12.6875,0.13,-1.01,0.64
63.25,0.3125,-12.5625,1.2,-0.82,1.3
63.8125,-0.1875,-12.4375,1.59,-0.68,1.44
64.25,-0.625,-12.3125,1.93,-0.54,1.36
64.6875,-0.875,-12.125,1.3,-0.08,0.23
65.125,-0.9375,-11.9375,0.41,0.14,0.04
66,-0.625,-11.625,-0.33,0.17,-0.22
66.3125,-0.5,-11.5625,-1.19,-0.29,-0.7
66.625,-0.5625,-11.625,-1.3,-0.59,-0.63
66.875,-0.8125,-11.6875,-1.28,-0.83,-0.25
67.125,-1.1875,-11.75,-0.85,-1.23,0.08
67.625,-1.6875,-11.8125,0.21,-1.61,1.08
67.9375,-2.25,-11.75,1,-1.81,1.31
68.3125,-2.75,-11.6875,2.03,-1.79,1.42
69.375,-3.1875,-11.0625,1.86,-1.26,0.81
69.9375,-3.125,-10.625,1.34,-0.74,0.37
70.5625,-2.875,-10.125,0.78,-0.32,-0.29
71.125,-2.5625,-9.625,-0.66,0.23,-1.49
71.625,-2.25,-9.25,-1.42,0.41,-1.8
72.125,-2.0625,-9,-1.72,0.41,-2.08
72.5625,-2.0625,-8.9375,-1.66,0.15,-2.35
72.9375,-2.25,-8.9375,-1.24,-0.27,-1.94
73.25,-2.5625,-9.0625,-0.31,-1,-0.99
73.8125,-3.4375,-9.4375,0.04,-1.32,-0.36
74.1875,-3.8125,-9.6875,0.47,-2.15,0.41
74.5625,-4.125,-9.9375,0.4,-2.5,0.73
75,-4.25,-10.0625,0.39,-2.66,0.66
75.5,-4.3125,-10.125,0.54,-3.09,0.14
76.125,-4.25,-9.9375,-0.38,-2.79,-0.38
76.875,-4.1875,-9.5625,-0.75,-2.42,-0.98
77.625,-4.125,-9,-1.46,-1.67,-1.14
78.4375,-4.125,-8.375,-1.83,0.16,-1.87
80.0625,-4.625,-7.125,-1.57,0.69,-1.64
80.9375,-5.1875,-6.75,-0.99,0.98,-1.36
81.5625,-5.75,-6.5625,0.43,0.54,-0.63
82.1875,-6.3125,-6.625,1.32,0.07,-0.38
82.8125,-6.8125,-6.8125,1.9,-0.54,-0.24
83.375,-7.125,-6.9375,1.99,-0.94,-0.04
84.125,-7.1875,-7,1.37,-1.14,-0.26
84.75,-7.125,-6.9375,0.3,-0.7,0.02
85.4375,-7,-6.6875,-0.53,-0.24,-0.42
86.125,-6.9375,-6.5,-0.92,0.01,-0.2
86.75,-6.875,-6.375,-0.3,-0.37,-0.52
87.5625,-6.9375,-6.375,-0.28,-0.52,-0.06
88.8125,-7.1875,-6.5625,0.78,-1.5,-0.03
89.4375,-7.3125,-6.75,0.89,-1.72,0.19
90.125,-7.375,-6.75,1.12,-1.82,0.06
90.875,-7.4375,-6.625,1.32,-1.76,-0.28
91.6875,-7.4375,-6.3125,0.62,-0.78,-0.51
92.5625,-7.375,-5.875,0.36,-0.27,-0.79
93.375,-7.3125,-5.375,-0.19,0.42,-1.17
94.125,-7.25,-5,-0.65,0.29,-1.07
94.8125,-7.3125,-4.8125,-0.53,-0.07,-0.93
96,-7.5625,-4.875,-0.58,-0.46,-0.45
96.5,-7.75,-5.125,-0.55,-0.99,0.12
97.0625,-7.9375,-5.4375,-0.2,-1.96,1.27
97.5625,-8.1875,-5.875,0.38,-2.75,1.33
98.1875,-8.3125,-6.1875,0.58,-3.21,1.57
98.9375,-8.375,-6.375,1.16,-3.72,1.06
99.75,-8.3125,-6.25,0.63,-2.92,0.05
100.625,-8.125,-5.75,0.24,-2.09,-0.7
101.625,-7.875,-5,-0.94,-0.32,-1.7
103.6875,-7.4375,-3.0625,-1.28,0.64,-1.99
104.6875,-7.375,-2.1875,-1.19,1.19,-2.34
105.5625,-7.5625,-1.5625,-1.18,1.74,-1.98
106.375,-7.875,-1.25,-0.13,1.61,-0.98
107.125,-8.3125,-1.3125,0.63,1.05,-0.23
107.75,-8.8125,-1.625,2.12,-0.34,1.31
108.4375,-9.25,-2.125,3.46,-1.66,1.93
109.0625,-9.625,-2.625,3.59,-1.86,2.15
110.4375,-9.75,-2.9375,3.4,-1.69,2.14
111.1875,-9.5,-2.6875,2.51,-0.89,1.32
111.9375,-9.0625,-2.1875,1.87,-0.16,0.81
112.75,-8.5,-1.5625,1.37,0.32,0.08
113.4375,-7.9375,-1,0.64,0.85,-0.26
114.1875,-7.4375,-0.5625,0.22,1.27,-0.69
114.8125,-7.0625,-0.3125,0.69,0.73,-0.62
115.3125,-6.875,-0.25,1.39,0.31,-0.49
116.625,-6.875,-0.4375,2.46,-0.27,-0.07
117.125,-6.9375,-0.4375,2.83,-0.25,0.09
117.625,-7,-0.375,3.06,-0.2,0.09
118.125,-6.9375,-0.1875,2.98,-0.12,0.12
118.625,-6.8125,0,2.42,0.36,0
119.0625,-6.5625,0.1875,1.87,0.61,0
119.4375,-6.375,0.5,1.45,0.85,0
119.6875,-6.1875,0.6875,1.05,0.49,0.03
119.875,-6,0.8125,0.94,0.39,0.35
120.0625,-5.9375,0.8125,1.09,0.02,0.46
120.3125,-5.8125,0.6875,1.6,-0.61,0.5
120.4375,-5.75,0.625,1.86,-0.83,0.36
120.5625,-5.625,0.625,2.1,-1.11,0.06
120.6875,-5.4375,0.6875,1.95,-1.13,-0.06
120.875,-5.1875,0.875,1.26,-0.67,-0.44
121.125,-4.875,1.1875,0.79,-0.3,-0.64
121.375,-4.5625,1.6875,-0.11,0.96,-0.57
121.875,-4.3125,2.6875,0.22,1.65,-0.56
121.875,-4.3125,2.6875,0.66,1.88,-0.39
122.0625,-4.4375,3.125,1.21,1.98,-0.09
122.3125,-4.8125,3.5625,2.3,1.51,0.22
122.3125,-5,3.625,2.56,1.32,0.42
122.375,-5,3.5625,2.59,1.07,0.56
122.3125,-4.875,3.5,2.49,0.81,0.52
122.25,-4.625,3.5,1.92,0.71,-0.06
122.1875,-4.25,3.5625,0.87,0.95,-0.68
122.125,-3.8125,3.75,0.32,1.25,-0.82
121.9375,-3.1875,4.0625,-0.03,1.45,-1.04
121.8125,-3,4.25,-0.2,1.56,-0.8
121.6875,-2.875,4.3125,-0.1,1.58,-0.5
121.5,-3,4.25,0.43,1.28,-0.37
121.25,-3.125,4.125,1.57,0.61,0
121.0625,-3.25,4.125,2.14,0.42,0.1
120.9375,-3.1875,4.1875,2.3,0.37,0.2
120.8125,-3,4.375,1.7,1.18,-0.23
120.6875,-2.75,4.6875,1.34,1.73,-0.5
120.3125,-2.1875,5.625,1.02,2.44,-0.82
119.9375,-2,6,0.92,3.03,-1.49
119.5625,-1.875,6.1875,0.74,3.12,-1.36
119,-1.75,6.125,0.72,2.98,-1.26
118.3125,-1.625,5.75,1.22,2.1,-1.74
117.5625,-1.375,5.1875,0.68,0.77,-1.36
116.875,-1.0625,4.4375,0.32,-0.07,-1.38
116.1875,-0.6875,3.75,-0.69,-1.63,-1.19
115,-0.1875,2.6875,-1.26,-2.49,-1.27
114.4375,-0.125,2.4375,-1.44,-2.64,-1.29
114.25,-0.1875,2.5,-1.68,-2.42,-1.06
114.125,-0.4375,2.8125,-1.51,-1.33,-0.41
114.125,-0.875,3.3125,-1.05,-0.58,-0.14
114.1875,-1.4375,3.875,-0.3,0.09,-0.01
114.3125,-2,4.5,0.51,0.83,0.18
114.375,-2.5,5.125,1.72,2.14,0.55
114.375,-2.875,5.5625,2.48,3.12,0.52
114.125,-3,6,2.62,3.29,0.27
113.75,-2.75,5.875,2.04,3.19,-0.2
113.3125,-2.375,5.5625,1.46,2.85,-0.44
112.6875,-1.875,5.125,0.77,2.32,-0.68
112.0625,-1.375,4.5625,0.1,1.62,-0.96
111.3125,-0.9375,3.9375,-0.93,0.24,-1.32
110.5625,-0.5625,3.3125,-1.54,-0.32,-1.21
109.9375,-0.375,2.75,-1.97,-0.71,-0.88
109.375,-0.3125,2.25,-1.43,-1.58,-0.01
108.5,-0.6875,1.8125,-0.78,-1.74,0.15
107.875,-0.9375,1.8125,-0.12,-1.71,0.34
107.6875,-1.1875,2,0.84,-0.96,0.59
107.5625,-1.375,2.375,1.15,-0.41,0.55
107.5,-1.4375,2.8125,1.27,0.32,0.51
107.375,-1.375,3.3125,1.71,0.88,0.01
107.25,-1.25,3.875,1.31,2.15,-0.49
107.0625,-1.0625,4.3125,1.18,2.72,-0.96
106.75,-0.8125,4.625,-0.05,3.53,-1.01
105.75,-0.4375,4.5,-0.59,3.23,-0.61
104.8125,-0.375,3.9375,-0.52,2.51,-0.34
104.0625,-0.375,3.1875,-0.26,1.56,0.01
103.25,-0.4375,2.3125,0.41,-0.29,0.61
102.5,-0.375,1.5,0.53,-1.11,0.93
101.75,-0.25,0.875,0.28,-1.54,1.39
101,-0.0625,0.4375,0.4,-2.01,1.26
100.5,0.125,0.25,-0.29,-2.02,0.1
100.0625,0.5,0.3125,-0.96,-1.62,-0.26
99.5625,1.3125,0.8125,-1.42,-1.17,-0.74
99.375,1.5,1.25,-2.04,-0.15,-1.19
99.25,1.5,1.6875,-1.89,0.35,-1.24
99.0625,1.25,2.125,-1.51,0.9,-1.21
98.875,0.875,2.5,-0.86,1.27,-1.07
98.6875,0.4375,2.75,0.42,1.72,-0.45
98.375,0,2.8125,0.98,1.81,0.01
98,-0.25,2.75,1.5,1.36,1.15
97.0625,-0.3125,2.25,1.19,1.02,1.42
96.5,-0.0625,1.875,0.9,0.44,1.28
95.875,0.3125,1.4375,0.54,-0.18,0.93
95.3125,0.8125,1,-0.38,-1.32,-0.01
94.75,1.4375,0.625,-1.14,-1.65,-0.38
94.375,1.9375,0.4375,-1.79,-1.95,-1.43
94.0625,2.3125,0.375,-2.06,-1.39,-1.72
93.8125,2.5,0.5,-1.88,-0.85,-1.57
93.6875,2.4375,0.75,-1.53,-0.27,-1.29
93.5625,1.6875,1.4375,-1.05,0.31,-0.82
93.5,1.0625,1.8125,0.55,1.09,-0.1
93.1875,0.5,2.125,1.45,1.34,0.16
93.0625,0,2.375,2.11,1.47,0.36
92.875,-0.1875,2.5,2.3,1.84,0.64
92.625,-0.1875,2.625,1.81,1.82,0.11
92.3125,-0.0625,2.625,1.24,1.68,-0.28
91.9375,0.25,2.5,0.05,1.26,-1.05
91.5,0.6875,2.375,-0.49,0.95,-1.39
90.5,1.4375,1.875,-0.91,0.63,-1.6
90,1.625,1.5625,-1.08,0.31,-1.84
89.4375,1.6875,1.375,-1.01,-0.27,-1.95
89,1.625,1.1875,-1.15,-0.24,-1.53
88.5625,1.375,1.125,-1,-0.29,-1.31
88.1875,1,1.125,-0.11,0.15,-0.22
87.9375,0.5625,1.1875,0.46,0.36,-0.03
87.5625,0.0625,1.3125,0.97,0.58,0.12
87.25,-0.375,1.5,1.49,1.29,0.29
86.75,-1.0625,1.9375,1.67,1.47,0.17
86.375,-1.1875,2.1875,1.66,1.97,-0.04
86,-1.1875,2.375,1.56,2.06,-0.59
85.625,-1,2.4375,1,2.44,-1.63
85.125,-0.8125,2.625,-0.41,2.78,-1.28
84.4375,-0.625,2.6875,-1.24,2.85,-1.23
83.75,-0.5,2.5,-1.83,2.73,-1.15
82.875,-0.5625,2.0625,-1.55,1.43,-1.12
82.0625,-0.75,1.4375,-0.89,-0.09,-0.64
81.25,-1,0.75,-0.48,-0.79,-0.43
79.75,-1.5,-0.3125,-0.35,-1.4,0.08
79.0625,-1.6875,-0.625,-0.32,-1.42,0.13
78.5625,-1.875,-0.75,-0.25,-1.3,0.05
78.0625,-2.0625,-0.625,-0.34,-0.67,-0.46
77.625,-2.1875,-0.4375,-0.34,-0.09,-0.69
77.3125,-2.3125,-0.1875,-0.42,0.5,-0.89
76.875,-2.5,0.0625,-0.25,0.99,-1.21
76.5,-2.6875,0.25,-0.13,2.06,-1.31
76.0625,-2.875,0.4375,-0.48,2.39,-0.86
74.9375,-3.375,0.1875,-0.41,2.33,-0.55
74.25,-3.625,-0.125,-0.1,1.67,0.12
73.5,-3.9375,-0.75,0.44,0.89,0.13
72.6875,-4.125,-1.4375,0.69,0.09,0.26
71.875,-4.1875,-2.1875,0.54,-0.51,0.47
71.125,-4.1875,-2.8125,0.22,-1.27,0.43
70.4375,-4.125,-3.25,-0.34,-1.31,0.49
69.8125,-4,-3.5,-0.65,-1.35,0.23
69.1875,-3.9375,-3.625,-1.39,-0.57,-0.43
68.6875,-4,-3.5625,-1.15,-0.32,-0.8
68.1875,-4.125,-3.4375,-1.15,0.01,-0.84
67.3125,-4.8125,-3.1875,-1.14,0.93,-0.04
66.8125,-5.25,-3.0625,-0.38,0.88,-0.01
66.25,-5.75,-3.125,-0.02,0.91,0.41
65.625,-6.1875,-3.25,0.24,0.97,0.98
65,-6.625,-3.4375,1.23,0.36,0.89
64.375,-6.875,-3.6875,1.15,0.26,1.08
63.75,-6.9375,-4,0.76,-0.17,0.63
63.125,-6.8125,-4.25,-0.62,-0.06,0.5
62.5,-6.5625,-4.5,-0.91,-0.33,0.11
61.9375,-6.3125,-4.8125,-1.4,-0.45,0.09
60.6875,-5.9375,-5.4375,-1.38,-0.93,-0.27
60.0625,-5.9375,-5.6875,-1.26,-1.2,-0.28
59.4375,-6.0625,-5.9375,-1.19,-1.26,-0.07
58.875,-6.25,-6.125,-1.05,-1.26,0.25
58.3125,-6.5,-6.25,-0.65,-1.1,0.97
57.75,-6.875,-6.375,-0.03,-1.11,1.63
56.9375,-7.4375,-6.5,0.44,-0.91,1.52
56.4375,-7.625,-6.4375,-0.08,-0.67,2.05
56,-7.75,-6.4375,0,-0.6,1.83
55.625,-7.6875,-6.4375,-0.73,-0.62,2.24
55.125,-7.625,-6.5625,-0.69,-1.16,1.94
54.75,-7.4375,-6.6875,-1.76,-1.2,2.42
54.4375,-7.3125,-6.75,-1.79,-1.45,2.31
54.0625,-7.3125,-6.6875,-1.68,-1.41,2.23
53.75,-7.375,-6.5625,-0.94,-0.92,2.48
53.375,-7.5625,-6.25,-0.66,-0.7,2.49
52.875,-7.75,-5.5625,-0.72,-0.48,2.72
52.625,-7.6875,-5.25,-0.64,-0.38,2.72
52.3125,-7.625,-5,-0.66,-0.44,2.62
52.0625,-7.375,-4.8125,-0.8,-0.58,2.59
51.75,-7.0625,-4.625,-1.17,-0.59,2.75
51.5,-6.6875,-4.5,-1.44,-0.94,2.57
51.125,-6.3125,-4.375,-1.41,-1.23,2.25
50.875,-5.8125,-4.25,-1.75,-1.67,1.73
50.5625,-5.3125,-4.1875,-2.1,-1.96,1.25
50.1875,-4.125,-3.875,-2.29,-2.15,0.9
50.0625,-3.625,-3.625,-2.51,-2.3,0.7
49.9375,-3.125,-3.375,-2.73,-2.39,0.35
49.9375,-2.75,-3.0625,-2.71,-2.36,0.26
49.875,-2.5,-2.5625,-2.46,-2.17,0.19
50,-2.375,-2,-2.08,-1.83,0.18
50.1875,-2.3125,-1.375,-1.13,-1.23,0.02
50.3125,-2.3125,-0.6875,-0.61,-0.31,0.11
50.8125,-2.1875,0.5625,-0.69,0.04,0.27
51,-2,1.1875,-0.3,0.12,-0.18
51.1875,-1.8125,1.625,-0.33,0.06,-0.39
51.25,-1.5,2,-0.4,-0.1,-0.65
51.375,-1.1875,2.3125,-0.69,-0.34,-0.7
51.5,-0.8125,2.5,-1.11,-0.92,-0.78
51.5625,-0.5,2.75,-1.21,-1.2,-0.88
51.75,-0.25,3.0625,-1.32,-1.26,-0.92
51.9375,-0.125,3.375,-0.78,-1.05,-1.34
52.125,-0.0625,3.875,-0.81,-0.55,-1.28
52.4375,-0.125,4.5,-0.77,-0.16,-1.27
52.75,-0.1875,5.1875,-1.07,0.59,-0.78
53.4375,-0.375,6.5,-0.76,0.43,-0.84
53.6875,-0.625,7,-0.73,0.4,-0.5
53.9375,-0.875,7.375,-0.41,0.34,-0.31
54.25,-1.125,7.75,0.02,-0.21,-0.15
54.4375,-1.375,8.125,-0.08,-0.1,0.19
54.6875,-1.5625,8.5,0.14,-0.34,-0.06
54.8125,-1.6875,8.875,-0.94,-0.36,-0.03
55.0625,-1.6875,9.25,-1.3,-0.55,-0.05
55.3125,-1.625,9.5,-1.98,-0.54,0.43
55.625,-1.625,10.125,-1.67,-1.37,0.06
55.9375,-1.6875,10.375,-1.69,-1.74,0.12
56.1875,-1.8125,10.6875,-1.32,-2.05,-0.09
56.6875,-1.9375,11.125,-1.08,-2,-0.16
57.125,-2.0625,11.75,-0.81,-1.81,-0.41
57.6875,-2.25,12.5625,-0.77,-1.3,-0.59
58.3125,-2.3125,13.5,-1.04,-0.03,-0.64
59,-2.375,14.5625,-0.42,0.69,-1.63
59.6875,-2.625,15.75,-0.59,1.16,-1.7
61,-3,17.9375,-0.25,1.45,-2.07
61.5625,-3.1875,18.8125,-0.49,1.79,-1.92
62.125,-3.4375,19.5,-0.33,1.74,-1.95
62.75,-3.6875,19.9375,-0.25,1.59,-1.82
63.1875,-3.9375,20.1875,0.01,1.09,-1.87
63.625,-4,20.3125,-0.86,0.05,-1.08
64,-4.0625,20.375,-1.14,-0.43,-1.13
64.375,-4.0625,20.375,-1.58,-0.76,-1
64.8125,-4,20.3125,-2.11,-1.51,-1.01
65.8125,-4,20.375,-2.34,-1.73,-0.89
66.4375,-4.0625,20.5625,-2.33,-1.96,-0.86
67.1875,-4.0625,20.8125,-2.32,-2,-0.78
68.125,-4.0625,21.1875,-2.08,-1.69,-0.94
69,-4.0625,21.625,-2.14,-1.56,-1.03
69.9375,-4,22.0625,-2.78,-0.96,-0.67
71,-3.9375,22.5625,-2.93,-0.52,-0.47
72,-3.9375,23.25,-2.5,-0.18,-0.41
74.375,-4.25,24.6875,-2.16,0.26,-0.24
75.625,-4.5,25.6875,-1.01,1.18,0.04
76.8125,-4.8125,26.625,-0.04,1.68,-0.03
77.9375,-5.0625,27.625,0.96,2.02,-0.19
79.1875,-5.125,28.5,1.22,2.54,-0.02
80.125,-5,29.0625,1.58,2.81,-0.71
80.9375,-4.625,29.375,0.25,2.68,-1.1
82.25,-3.5,29.125,-0.55,2.35,-1.26
82.75,-3,28.6875,-1.95,1.29,-1.32
83.3125,-2.5625,28.125,-2.18,0.51,-1.43
83.8125,-2.3125,27.5625,-2.18,-0.37,-1.57
84.4375,-2.125,27,-2.2,-1.06,-1.38
85.1875,-2,26.625,-1.71,-2.04,-1.12
86.1875,-1.9375,26.375,-1.71,-2.18,-0.79
87.1875,-1.8125,26.375,-1.58,-2.14,-0.61
88.3125,-1.625,26.625,-1.55,-0.54,-0.09
90.875,-1.3125,27.5,-1.63,0.21,0.11
92.1875,-1.0625,28,-1.87,1.12,0.62
93.4375,-1,28.4375,-1.03,1.51,0.73
94.625,-0.875,28.6875,-0.4,1.3,0.61
95.875,-0.6875,28.9375,0.17,1.18,0.48
97,-0.5,29.1875,0.58,1.04,0.39
98.25,-0.125,29.5625,1.03,1,-0.03
99.375,0.25,30,0.93,1.27,-0.27
100.4375,0.75,30.4375,0.59,1.75,-1.27
101.5,1.3125,30.9375,-0.61,2.57,-1.33
102.5625,1.9375,31.3125,-0.91,2.7,-1.48
104.4375,2.75,31.6875,-1.17,2.76,-1.43
105.3125,3,31.5,-0.9,2.19,-1.16
106.125,3.125,31.1875,-0.57,1.64,-0.85
106.875,3.1875,30.6875,-0.31,0.94,-0.44
107.75,3.25,30.1875,-0.19,0.48,0.07
108.5625,3.3125,29.6875,0.49,-0.57,0.28
109.375,3.5,29.3125,0.39,-0.83,0.49
111.125,4.25,29.0625,0.14,-0.72,0.34
112.1875,4.75,29.0625,-0.6,-0.16,-0.08
113.125,5.3125,29.125,-0.91,0.01,-0.56
114.125,5.875,29.1875,-1.32,0.22,-0.97
115.125,6.4375,29.1875,-1.58,0.35,-1.33
116.125,6.9375,29.125,-1.74,0.43,-2.01
117.1875,7.3125,29.0625,-1.82,0.44,-2.18
118.3125,7.6875,28.875,-1.72,0.58,-2.07
119.4375,7.9375,28.6875,-1.54,0.73,-1.95
121.8125,8.1875,28.375,-1.37,1,-1.63
123.125,8.125,28.25,-1.09,1.29,-1.25
124.375,8,28.125,-0.29,1.72,-0.66
125.5625,7.875,27.9375,-0.13,1.84,-0.21
126.75,7.8125,27.6875,-0.1,1.97,0.24
127.875,7.75,27.4375,-0.21,2.1,0.72
129,7.75,27.0625,-0.35,1.79,1.28
130.0625,7.8125,26.6875,-0.26,1.18,1.48
131.875,8.125,25.75,-0.34,0.84,1.54
132.8125,8.375,25.375,0.14,0.1,1.09
133.8125,8.625,25.0625,0.1,-0.21,0.81
134.8125,9.0625,24.875,0.17,-0.35,0.28
135.8125,9.625,24.875,-0.17,-0.24,-0.77
136.9375,10.1875,24.9375,-1.39,0.63,-1.5
138.0625,10.875,25.125,-1.91,1.1,-1.82
139.25,11.5,25.3125,-2.56,1.81,-1.76
141.6875,12.1875,25.5625,-2.58,2.1,-1.44
142.9375,12.3125,25.5,-2.06,2.18,-1.18
144.125,12.1875,25.375,-1.41,2.05,-0.82
145.3125,12,25.0625,0.23,1.74,-0.18
146.5,11.875,24.75,0.81,1.5,0.13
147.625,11.8125,24.4375,0.95,1.49,0.79
148.75,11.9375,24.125,0.35,1.71,1.13
150.9375,12.5,23.625,-0.03,1.9,1.21
151.9375,12.875,23.375,-0.34,1.99,1.29
152.875,13.125,23.0625,-0.39,1.84,1.14
153.8125,13.375,22.75,-0.61,1.8,1.31
154.75,13.625,22.4375,-0.53,1.55,1.28
155.75,13.8125,22.0625,-0.45,1.35,1.26
156.625,13.9375,21.75,-0.55,0.9,1.78
157.5625,14.125,21.375,-0.41,0.72,1.77
159.5,14.4375,20.875,-0.42,0.7,1.94
160.5625,14.5625,20.6875,-0.26,0.97,2.24
161.625,14.6875,20.6875,-0.01,1.12,2.28
162.75,14.75,20.75,0.4,1.3,2.15
163.875,14.9375,20.8125,0.74,1.56,1.96
165,15.125,20.9375,0.88,2.5,1.46
166.1875,15.4375,21.0625,0.65,2.77,1.25
167.25,15.875,21.125,-0.08,2.98,1
169,16.625,20.875,-0.15,2.66,0.89
169.6875,16.9375,20.4375,-0.19,2.19,0.99
170.375,17.0625,19.875,-0.22,1.65,1.35
171.0625,17.125,19.125,0.17,0.48,2.12
171.8125,17.1875,18.4375,-0.07,0.34,3.03
172.625,17.125,17.8125,0.69,-0.32,3.54
173.625,17.0625,17.375,1.55,0.32,3.92
174.8125,17,17.1875,1.65,1.11,4.1
177.4375,17,17.75,2.5,1.78,3.52
178.9375,17.1875,18.375,2.52,2.85,3.38
180.3125,17.5,19.125,2.97,4.31,2.1
181.625,17.9375,19.8125,2.84,4.74,1.28
182.8125,18.5,20.4375,2.39,5.51,0.85
183.8125,19.0625,20.875,1.66,6.16,-0.67
185.125,20.0625,21.375,1.66,6.11,-0.89
185.5,20.4375,21.375,1.5,5.89,-0.79
185.6875,20.5625,21.3125,1.87,5.15,-0.24
185.75,20.5,21.1875,1.72,4.85,0.58
185.6875,20.4375,20.9375,2.5,4.17,0.85
185.5,20.3125,20.625,3.56,2.37,1.82
185.1875,20.25,20.4375,3.48,2.01,1.87
184.875,20.375,20.3125,2.92,1.77,2.04
184,21.125,20.5,2.71,1.34,1.59
183.625,21.75,20.875,1.53,1.17,0.7
183.125,22.375,21.375,0.92,1.19,0.27
182.8125,23,21.875,0.47,1.34,-0.12
182.5,23.5625,22.4375,0.29,1.62,-0.74
182.25,24,23.0625,1.01,1.72,-1.25
182,24.25,23.5625,1.34,1.85,-1.31
181.625,24.6875,24.4375,1.8,2.26,-1.09
181.4375,24.8125,24.875,2.04,2.39,-1.04
181.125,24.9375,25.25,2.13,2.6,-0.85
180.8125,25.125,25.625,2.18,2.76,-0.67
180.3125,25.3125,25.9375,2.29,2.71,-0.75
179.8125,25.5,26.25,2.07,2.75,-0.74
179.1875,25.75,26.5625,1.45,2.55,-0.91
177.6875,26.3125,27.0625,0.86,2.34,-1.18
176.75,26.5625,27.25,0.57,2.26,-1.2
175.9375,26.75,27.4375,0.46,2.12,-1.28
175.0625,26.875,27.625,0.73,1.73,-1.47
174.1875,26.9375,27.8125,0.97,1.45,-1.59
173.25,26.9375,27.9375,1.08,1.14,-1.74
171.9375,27,28.0625,0.45,0.96,-1.72
171,27.0625,28.25,0.22,0.72,-1.92
169,27.3125,28.4375,-0.17,0.42,-2.07
168,27.4375,28.5,-0.31,0.03,-2.3
166.9375,27.5,28.5,-0.99,-0.36,-2.19
166,27.5,28.5,-1.15,-0.61,-1.91
165.1875,27.375,28.5,-1.17,-0.75,-1.56
164.4375,27.1875,28.5,-0.73,-1.01,-1.43
163.8125,26.75,28.6875,0.13,-1.06,-1
163.1875,26.4375,28.9375,0.84,-0.36,-0.63
162.8125,26.0625,29.375,1.09,0.75,-0.7
162.3125,25.625,30.5625,1.19,1.32,-1
162,25.5625,31.25,0.99,1.84,-1.27
161.625,25.5,31.9375,0.68,2.43,-1.33
161.1875,25.5625,32.5625,0.37,2.79,-1.92
160.5,25.5,33,0.45,2.66,-2.32
159.6875,25.4375,33.3125,-0.12,2.67,-2.02
158.8125,25.3125,33.5625,-0.13,1.59,-2.12
157.6875,25.0625,33.6875,-0.2,1.08,-2.03
155.25,24.5625,33.5625,-0.43,0.48,-1.94
154,24.3125,33.5,-0.64,-0.06,-1.94
152.75,24.0625,33.375,-1.44,-0.66,-1.52
151.5625,23.8125,33.25,-1.71,-0.98,-1.44
150.4375,23.5625,33.1875,-1.74,-1.27,-1.45
149.5,23.3125,33.125,-1.57,-1.49,-1.31
148.6875,23,33.125,-0.65,-1.57,-1.52
148,22.625,33.1875,-0.23,-1.31,-1.59
146.8125,21.9375,33.75,0.09,-0.37,-1.74
146.4375,21.6875,34.125,0.26,0.15,-1.99
146.0625,21.4375,34.5625,0.09,0.8,-1.99
145.6875,21.25,35,-0.01,1.4,-2.09
145.25,21.0625,35.375,-0.5,2.18,-1.93
144.6875,20.8125,35.6875,-0.43,2.28,-1.84
144,20.5,35.75,0.02,1.27,-1.39
142.25,19.6875,35.375,0.04,0.91,-1.07
141.1875,19.3125,35,0.15,0.37,-0.86
140.125,18.875,34.625,0.17,-0.12,-0.72
139.0625,18.5625,34.25,0.16,-0.82,-0.85
138.0625,18.3125,33.875,-0.18,-1.01,-0.93
137.0625,18.125,33.625,-1.19,-0.82,-0.76
136.25,18.0625,33.5625,-2.49,-0.09,0.46
135.4375,17.9375,33.5,-2.07,-0.06,0.71
134.125,17.375,33.4375,-1.23,-0.36,0.72
133.5625,17.0625,33.375,-0.76,-0.41,1.08
133.0625,16.75,33.4375,1.22,-0.68,0.67
132.5625,16.625,33.625,1.55,-0.52,0.56
132.1875,16.75,34,1.69,-0.11,0.28
131.6875,16.9375,34.5,0.76,1.47,-1.43
131.1875,17.3125,35,-0.15,2.12,-1.81
130.5625,17.75,35.4375,-0.96,2.53,-2.25
129.125,18.1875,35.8125,-2.03,2.79,-2.86
128.375,18.1875,35.6875,-2.37,2.85,-2.56
127.5,17.875,35.3125,-2.41,2.67,-2.04
126.5,17.3125,34.75,-2.04,2.26,-1.45
125.625,16.625,34,-0.53,1.02,-0.3
124.625,16,33.1875,1.13,-0.59,0.05
122.6875,15.125,31.8125,1.25,-1.04,0.35
121.625,15.0625,31.4375,0.69,-1.65,0.07
120.8125,15.1875,31.1875,-0.32,-1.45,-0.02
120,15.4375,31.125,-1.61,-1,-0.03
119.375,15.625,31.125,-2.83,-0.56,-1
118.8125,15.625,31.125,-2.83,-0.23,-1.72
118.3125,15.5,31.125,-2.58,-0.05,-1.72
117.875,15.1875,31.125,-1.78,0.32,-1.13
117.3125,14.1875,30.875,-1.2,0.54,-0.76
117.0625,13.625,30.6875,-0.82,0.78,-0.09
116.8125,13.0625,30.5,-0.31,1.13,0.63
116.5,12.5625,30.3125,0.45,1.63,2.2
116.0625,12.125,30,0.96,1.65,2.89
115.4375,11.8125,29.6875,2.02,0.53,2.17
114.75,11.9375,29.4375,0.88,0.09,1.33
113.9375,12.3125,29.1875,0.01,-0.32,0.46
112.3125,13.625,29.125,-1.27,-0.14,-0.2
111.625,14.3125,29.1875,-2.6,0.04,-1.99
111,14.6875,29.375,-3.36,0.44,-2.18
110.5,14.9375,29.5,-3.5,0.8,-2.41
110.1875,14.8125,29.625,-3.08,1.09,-2.67
109.875,14.4375,29.625,-2.22,1.65,-1.92
109.625,14,29.375,-0.35,1.4,-1.36
109.3125,13.4375,29,0.27,1.16,-0.89
108.5625,12.5,28.0625,1.03,0.88,-0.19
108.0625,12.1875,27.6875,1.12,0.71,-0.12
107.5625,12,27.3125,1.04,0.64,-0.22
107,12.0625,27,0.39,0.9,-0.01
106.375,12.125,26.75,-0.76,0.99,-0.26
105.6875,12.25,26.4375,-1.48,0.87,-0.34
105,12.4375,26,-1.94,-0.54,-1.96
103.8125,12.4375,25.125,-1.6,-1.01,-2.64
103.375,12.3125,24.9375,-1.85,-0.74,-2.59
103.0625,11.9375,24.9375,-1.44,-0.6,-2.79
102.8125,11.5,25.0625,-1.86,0.78,-1.67
102.5625,11,25.125,-1.48,1.27,-1.33
102.3125,10.4375,25.0625,-0.76,1.6,-0.92
101.9375,9.875,24.8125,-0.03,1.33,-0.93
101.5625,9.4375,24.375,0.13,1.05,-1.1
100.5625,8.75,23.4375,0.21,0.82,-1.31
100.125,8.4375,23,0.06,0.84,-1.39
99.75,8.1875,22.625,-1.05,1.57,-0.75
99.1875,7.8125,22.25,-1.4,1.85,-0.48
98.6875,7.375,21.875,-1.58,2.08,-0.19
98.0625,6.875,21.3125,-0.98,1.6,0.1
97.375,6.3125,20.8125,-0.49,1.12,-0.09
96.6875,5.75,20.125,-0.46,0.81,-0.04
95.3125,4.9375,18.6875,-0.91,0.44,0.32
94.625,4.625,17.9375,-0.92,0.21,0.2
93.875,4.375,17.3125,-1.18,-0.11,0.19
93.1875,4.125,16.6875,-1.69,-0.01,0.53
92.5625,3.875,16.125,-1.82,-0.52,0
91.875,3.625,15.625,-1.98,-0.57,-0.08
91.375,3.375,15.1875,-2.09,-0.41,-0.19
90.8125,3.0625,14.875,-1.64,-0.27,-0.36
90.25,2.625,14.625,-1.25,-0.37,-0.61
89.1875,1.9375,13.9375,-1.1,-0.5,-0.74
88.6875,1.75,13.5,-1.55,-0.59,-0.87
88.1875,1.625,13.0625,-2.1,-0.51,-0.75
87.75,1.5625,12.625,-2.54,-0.57,-0.75
87.375,1.5,12.125,-2.86,-0.68,-0.87
87,1.25,11.6875,-3.5,0.03,0.92
86.6875,0.8125,11.3125,-2.76,-0.05,1.38
86.375,0.25,10.8125,-1.22,-0.79,1.12
85.75,-0.9375,9.5625,-0.21,-1.16,1.72
85.5,-1.25,9,0,-1.32,1.72
85.3125,-1.3125,8.5625,-0.46,-1.08,2.02
85.1875,-1.3125,8.1875,-0.51,-0.95,1.58
85.1875,-1.25,8.0625,-1.57,0.4,1.28
85.125,-1.1875,8.0625,-1.81,1,1.07
