Timestamp,acc_x,acc_y,acc_z,gyro_x,gyro_y,gyro_z,magnet_x,magnet_y,magnet_z
25000,-0.03,0.01,9.62,0.0,-0.0,0.0,73.25,9.38,34.38
25006,-0.03,0.02,9.55,-0.0,-0.0,0.0,73.25,9.38,34.38
25008,-0.03,0.02,9.55,-0.0,-0.0,0.0,73.25,9.38,34.38
25009,-0.03,0.02,9.55,-0.0,-0.0,0.0,73.25,9.38,34.38
25016,-0.04,0.03,9.55,0.0,0.0,-0.0,73.25,9.38,34.38
25017,-0.04,0.03,9.55,0.0,0.0,-0.0,73.25,9.38,34.38
25019,-0.04,0.03,9.55,0.0,0.0,-0.0,73.25,9.38,34.38
25025,-0.03,0.03,9.59,-0.0,0.0,-0.0,73.25,9.38,34.38
25027,-0.03,0.03,9.59,-0.0,0.0,-0.0,73.25,9.38,34.38
25029,-0.03,0.03,9.59,-0.0,0.0,-0.0,73.25,9.38,34.38
25031,-0.03,0.03,9.59,-0.0,0.0,-0.0,73.25,9.38,34.38
25032,-0.03,0.03,9.59,-0.0,0.0,-0.0,73.25,9.38,34.38
25035,-0.03,0.0,9.61,-0.0,0.0,-0.0,73.25,9.69,34.0
25037,-0.03,0.0,9.61,-0.0,0.0,-0.0,73.25,9.69,34.0
25039,-0.03,0.0,9.61,-0.0,0.0,-0.0,73.25,9.69,34.0
25042,-0.03,0.0,9.61,-0.0,0.0,-0.0,73.25,9.69,34.0
25046,-0.02,0.0,9.59,0.0,0.0,-0.0,73.25,9.69,34.0
25048,-0.02,0.0,9.59,0.0,0.0,-0.0,73.25,9.69,34.0
25050,-0.02,0.0,9.59,0.0,0.0,-0.0,73.25,9.69,34.0
25056,-0.04,0.0,9.57,0.0,0.0,0.0,73.25,9.69,34.0
25058,-0.04,0.0,9.57,0.0,0.0,0.0,73.25,9.69,34.0
25059,-0.04,0.0,9.57,0.0,0.0,0.0,73.25,9.69,34.0
25066,-0.05,0.0,9.6,0.0,-0.0,0.0,73.25,9.69,34.0
25067,-0.05,0.0,9.6,0.0,-0.0,0.0,73.25,9.69,34.0
25069,-0.05,0.0,9.6,0.0,-0.0,0.0,73.25,9.69,34.0
25073,-0.05,0.0,9.6,0.0,-0.0,0.0,73.25,9.69,34.0
25077,-0.05,0.0,9.59,0.0,-0.0,0.0,73.25,9.69,34.0
25078,-0.05,0.0,9.59,0.0,-0.0,0.0,73.25,9.69,34.0
25080,-0.05,0.0,9.59,0.0,-0.0,0.0,73.25,9.69,34.0
25082,-0.05,0.0,9.59,0.0,-0.0,0.0,73.25,9.69,34.0
25084,-0.05,0.0,9.59,0.0,-0.0,0.0,73.69,9.69,33.56
25087,-0.06,-0.02,9.56,0.0,-0.0,0.0,73.69,9.69,33.56
25088,-0.06,-0.02,9.56,0.0,-0.0,0.0,73.69,9.69,33.56
25090,-0.06,-0.02,9.56,0.0,-0.0,0.0,73.69,9.69,33.56
25096,-0.04,-0.03,9.55,-0.0,0.0,0.0,73.69,9.69,33.56
25098,-0.04,-0.03,9.55,-0.0,0.0,0.0,73.69,9.69,33.56
25099,-0.04,-0.03,9.55,-0.0,0.0,0.0,73.69,9.69,33.56
25106,-0.04,0.0,9.59,0.0,-0.0,0.0,73.69,9.69,33.56
25107,-0.04,0.0,9.59,0.0,-0.0,0.0,73.69,9.69,33.56
25109,-0.04,0.0,9.59,0.0,-0.0,0.0,73.69,9.69,33.56
25115,-0.03,-0.01,9.55,-0.0,0.0,0.0,73.69,9.69,33.56
25117,-0.03,-0.01,9.55,-0.0,0.0,0.0,73.69,9.69,33.56
25119,-0.03,-0.01,9.55,-0.0,0.0,0.0,73.69,9.69,33.56
25122,-0.03,-0.01,9.55,-0.0,0.0,0.0,73.69,9.69,33.56
25126,-0.03,0.0,9.53,-0.0,0.0,0.0,73.69,9.69,33.56
25128,-0.03,0.0,9.53,-0.0,0.0,0.0,73.69,9.69,33.56
25130,-0.03,0.0,9.53,-0.0,0.0,0.0,73.69,9.69,33.56
25131,-0.03,0.0,9.53,-0.0,0.0,0.0,73.69,9.69,33.56
25133,-0.03,0.0,9.53,0.0,0.0,-0.0,73.69,10.06,34.38
25136,-0.04,0.0,9.62,0.0,0.0,-0.0,73.69,10.06,34.38
25138,-0.04,0.0,9.62,0.0,0.0,-0.0,73.69,10.06,34.38
25140,-0.04,0.0,9.62,0.0,0.0,-0.0,73.69,10.06,34.38
25146,-0.03,0.01,9.6,0.0,-0.0,-0.0,73.69,10.06,34.38
25147,-0.03,0.01,9.6,0.0,-0.0,-0.0,73.69,10.06,34.38
25149,-0.03,0.01,9.6,0.0,-0.0,-0.0,73.69,10.06,34.38
25156,-0.05,0.0,9.54,0.0,-0.0,-0.0,73.69,10.06,34.38
25157,-0.05,0.0,9.54,0.0,-0.0,-0.0,73.69,10.06,34.38
25159,-0.05,0.0,9.54,0.0,-0.0,-0.0,73.69,10.06,34.38
25165,-0.04,0.0,9.56,0.0,-0.0,0.0,73.69,10.06,34.38
25167,-0.04,0.0,9.56,0.0,-0.0,0.0,73.69,10.06,34.38
25169,-0.04,0.0,9.56,0.0,-0.0,0.0,73.69,10.06,34.38
25173,-0.04,0.0,9.56,0.0,0.0,-0.0,73.69,10.06,34.38
25177,-0.04,0.0,9.61,0.0,0.0,-0.0,73.69,10.06,34.38
25178,-0.04,0.0,9.61,0.0,0.0,-0.0,73.69,10.06,34.38
25180,-0.04,0.0,9.61,0.0,0.0,-0.0,73.69,10.06,34.38
25182,-0.04,0.0,9.61,0.0,0.0,-0.0,73.69,10.06,34.38
25184,-0.04,0.0,9.61,0.0,0.0,-0.0,72.87,9.38,32.25
25187,-0.06,0.02,9.59,0.0,0.0,-0.0,72.87,9.38,32.25
25188,-0.06,0.02,9.59,0.0,0.0,-0.0,72.87,9.38,32.25
25190,-0.06,0.02,9.59,0.0,0.0,-0.0,72.87,9.38,32.25
25196,-0.02,0.02,9.56,-0.0,0.0,0.0,72.87,9.38,32.25
25198,-0.02,0.02,9.56,-0.0,0.0,0.0,72.87,9.38,32.25
25199,-0.02,0.02,9.56,-0.0,0.0,0.0,72.87,9.38,32.25
25206,-0.03,0.02,9.58,0.0,0.0,-0.0,72.87,9.38,32.25
25208,-0.03,0.02,9.58,0.0,0.0,-0.0,72.87,9.38,32.25
25209,-0.03,0.02,9.58,0.0,0.0,-0.0,72.87,9.38,32.25
25216,-0.03,0.0,9.61,-0.0,0.0,0.0,72.87,9.38,32.25
25217,-0.03,0.0,9.61,-0.0,0.0,0.0,72.87,9.38,32.25
25219,-0.03,0.0,9.61,-0.0,0.0,0.0,72.87,9.38,32.25
25225,-0.03,-0.01,9.55,0.0,0.0,0.0,72.87,9.38,32.25
25227,-0.03,-0.01,9.55,0.0,0.0,0.0,72.87,9.38,32.25
25229,-0.03,-0.01,9.55,0.0,0.0,0.0,72.87,9.38,32.25
25231,-0.03,-0.01,9.55,0.0,0.0,0.0,72.87,9.38,32.25
25232,-0.03,-0.01,9.55,0.0,0.0,0.0,72.87,9.38,32.25
25236,-0.05,0.0,9.58,0.0,-0.0,0.0,73.69,10.06,34.75
25238,-0.05,0.0,9.58,0.0,-0.0,0.0,73.69,10.06,34.75
25239,-0.05,0.0,9.58,0.0,-0.0,0.0,73.69,10.06,34.75
25246,-0.04,0.0,9.58,-0.0,0.0,-0.0,73.69,10.06,34.75
25247,-0.04,0.0,9.58,-0.0,0.0,-0.0,73.69,10.06,34.75
25249,-0.04,0.0,9.58,-0.0,0.0,-0.0,73.69,10.06,34.75
25255,-0.03,-0.01,9.58,-0.0,0.0,-0.0,73.69,10.06,34.75
25257,-0.03,-0.01,9.58,-0.0,0.0,-0.0,73.69,10.06,34.75
25259,-0.03,-0.01,9.58,-0.0,0.0,-0.0,73.69,10.06,34.75
25262,-0.03,-0.01,9.58,-0.0,0.0,-0.0,73.69,10.06,34.75
25266,-0.04,-0.01,9.58,-0.0,0.0,-0.0,73.69,10.06,34.75
25268,-0.04,-0.01,9.58,-0.0,0.0,-0.0,73.69,10.06,34.75
25269,-0.04,-0.01,9.58,-0.0,0.0,-0.0,73.69,10.06,34.75
25276,-0.03,-0.01,9.58,-0.0,0.0,0.0,73.69,10.06,34.75
25278,-0.03,-0.01,9.58,-0.0,0.0,0.0,73.69,10.06,34.75
25279,-0.03,-0.01,9.58,-0.0,0.0,0.0,73.69,10.06,34.75
25281,-0.03,-0.01,9.58,-0.0,0.0,0.0,73.69,10.06,34.75
25283,-0.03,-0.01,9.58,-0.0,0.0,0.0,72.56,9.38,33.56
25286,-0.05,0.0,9.58,0.0,0.0,0.0,72.56,9.38,33.56
25288,-0.05,0.0,9.58,0.0,0.0,0.0,72.56,9.38,33.56
25290,-0.05,0.0,9.58,0.0,0.0,0.0,72.56,9.38,33.56
25296,-0.03,0.0,9.58,-0.0,0.0,0.0,72.56,9.38,33.56
25297,-0.03,0.0,9.58,-0.0,0.0,0.0,72.56,9.38,33.56
25299,-0.03,0.0,9.58,-0.0,0.0,0.0,72.56,9.38,33.56
25306,-0.05,0.0,9.57,0.0,0.0,-0.0,72.56,9.38,33.56
25308,-0.05,0.0,9.57,0.0,0.0,-0.0,72.56,9.38,33.56
25309,-0.05,0.0,9.57,0.0,0.0,-0.0,72.56,9.38,33.56
25315,-0.02,0.0,9.56,0.0,0.0,0.0,72.56,9.38,33.56
25317,-0.02,0.0,9.56,0.0,0.0,0.0,72.56,9.38,33.56
25319,-0.02,0.0,9.56,0.0,0.0,0.0,72.56,9.38,33.56
25322,-0.02,0.0,9.56,0.0,0.0,0.0,72.56,9.38,33.56
25326,-0.06,0.02,9.58,0.0,0.0,0.0,72.56,9.38,33.56
25328,-0.06,0.02,9.58,0.0,0.0,0.0,72.56,9.38,33.56
25330,-0.06,0.02,9.58,0.0,0.0,0.0,72.56,9.38,33.56
25331,-0.06,0.02,9.58,0.0,0.0,0.0,72.56,9.38,33.56
25333,-0.06,0.02,9.58,-0.0,0.0,0.0,73.69,9.38,33.56
25336,-0.03,0.01,9.61,-0.0,0.0,0.0,73.69,9.38,33.56
25338,-0.03,0.01,9.61,-0.0,0.0,0.0,73.69,9.38,33.56
25340,-0.03,0.01,9.61,-0.0,0.0,0.0,73.69,9.38,33.56
25346,-0.02,0.0,9.57,-0.0,0.0,0.0,73.69,9.38,33.56
25347,-0.02,0.0,9.57,-0.0,0.0,0.0,73.69,9.38,33.56
25349,-0.02,0.0,9.57,-0.0,0.0,0.0,73.69,9.38,33.56
25355,-0.04,0.01,9.56,0.0,-0.0,-0.0,73.69,9.38,33.56
25357,-0.04,0.01,9.56,0.0,-0.0,-0.0,73.69,9.38,33.56
25359,-0.04,0.01,9.56,0.0,-0.0,-0.0,73.69,9.38,33.56
25363,-0.04,0.01,9.56,-0.0,0.0,-0.0,73.69,9.38,33.56
25366,-0.02,0.03,9.58,-0.0,0.0,-0.0,73.69,9.38,33.56
25368,-0.02,0.03,9.58,-0.0,0.0,-0.0,73.69,9.38,33.56
25370,-0.02,0.03,9.58,-0.0,0.0,-0.0,73.69,9.38,33.56
25376,-0.03,0.0,9.6,-0.0,0.0,0.0,73.69,9.38,33.56
25378,-0.03,0.0,9.6,-0.0,0.0,0.0,73.69,9.38,33.56
25379,-0.03,0.0,9.6,-0.0,0.0,0.0,73.69,9.38,33.56
25381,-0.03,0.0,9.6,-0.0,0.0,0.0,73.69,9.38,33.56
25383,-0.03,0.0,9.6,-0.0,0.0,0.0,73.69,9.06,33.56
25386,-0.03,0.0,9.57,0.0,0.0,0.0,73.69,9.06,33.56
25388,-0.03,0.0,9.57,0.0,0.0,0.0,73.69,9.06,33.56
25389,-0.03,0.0,9.57,0.0,0.0,0.0,73.69,9.06,33.56
25396,-0.03,0.01,9.57,0.0,-0.0,-0.0,73.69,9.06,33.56
25398,-0.03,0.01,9.57,0.0,-0.0,-0.0,73.69,9.06,33.56
25399,-0.03,0.01,9.57,0.0,-0.0,-0.0,73.69,9.06,33.56
25406,-0.05,0.0,9.58,0.0,-0.0,-0.0,73.69,9.06,33.56
25407,-0.05,0.0,9.58,0.0,-0.0,-0.0,73.69,9.06,33.56
25409,-0.05,0.0,9.58,0.0,-0.0,-0.0,73.69,9.06,33.56
25416,-0.03,-0.03,9.58,0.0,0.0,-0.0,73.69,9.06,33.56
25417,-0.03,-0.03,9.58,0.0,0.0,-0.0,73.69,9.06,33.56
25419,-0.03,-0.03,9.58,0.0,0.0,-0.0,73.69,9.06,33.56
25426,-0.01,-0.02,9.59,0.0,0.0,-0.0,73.69,9.06,33.56
25428,-0.01,-0.02,9.59,0.0,0.0,-0.0,73.69,9.06,33.56
25429,-0.01,-0.02,9.59,0.0,0.0,-0.0,73.69,9.06,33.56
25431,-0.01,-0.02,9.59,0.0,0.0,-0.0,73.69,9.06,33.56
25433,-0.01,-0.02,9.59,0.0,-0.0,0.0,72.87,9.06,33.06
25436,-0.04,0.0,9.6,0.0,-0.0,0.0,72.87,9.06,33.06
25438,-0.04,0.0,9.6,0.0,-0.0,0.0,72.87,9.06,33.06
25440,-0.04,0.0,9.6,0.0,-0.0,0.0,72.87,9.06,33.06
25446,-0.03,-0.01,9.59,-0.0,0.0,-0.0,72.87,9.06,33.06
25447,-0.03,-0.01,9.59,-0.0,0.0,-0.0,72.87,9.06,33.06
25449,-0.03,-0.01,9.59,-0.0,0.0,-0.0,72.87,9.06,33.06
25456,-0.03,0.0,9.57,-0.0,0.0,-0.0,72.87,9.06,33.06
25458,-0.03,0.0,9.57,-0.0,0.0,-0.0,72.87,9.06,33.06
25459,-0.03,0.0,9.57,-0.0,0.0,-0.0,72.87,9.06,33.06
25465,-0.04,0.01,9.58,-0.0,0.0,-0.0,72.87,9.06,33.06
25467,-0.04,0.01,9.58,-0.0,0.0,-0.0,72.87,9.06,33.06
25469,-0.04,0.01,9.58,-0.0,0.0,-0.0,72.87,9.06,33.06
25473,-0.04,0.01,9.58,-0.0,0.0,-0.0,72.87,9.06,33.06
25476,-0.04,0.01,9.59,-0.0,0.0,-0.0,72.87,9.06,33.06
25478,-0.04,0.01,9.59,-0.0,0.0,-0.0,72.87,9.06,33.06
25480,-0.04,0.01,9.59,-0.0,0.0,-0.0,72.87,9.06,33.06
25482,-0.04,0.01,9.59,-0.0,0.0,-0.0,72.87,9.06,33.06
25483,-0.04,0.01,9.59,-0.0,0.0,-0.0,74.06,9.06,33.06
25486,-0.04,0.0,9.59,-0.0,-0.0,0.0,74.06,9.06,33.06
25488,-0.04,0.0,9.59,-0.0,-0.0,0.0,74.06,9.06,33.06
25489,-0.04,0.0,9.59,-0.0,-0.0,0.0,74.06,9.06,33.06
25496,-0.05,0.01,9.61,0.0,-0.0,0.0,74.06,9.06,33.06
25498,-0.05,0.01,9.61,0.0,-0.0,0.0,74.06,9.06,33.06
25499,-0.05,0.01,9.61,0.0,-0.0,0.0,74.06,9.06,33.06
25506,-0.03,0.01,9.58,0.0,-0.0,0.0,74.06,9.06,33.06
25507,-0.03,0.01,9.58,0.0,-0.0,0.0,74.06,9.06,33.06
25509,-0.03,0.01,9.58,0.0,-0.0,0.0,74.06,9.06,33.06
25513,-0.03,0.01,9.58,0.0,-0.0,0.0,74.06,9.06,33.06
25516,-0.06,0.01,9.59,0.0,-0.0,0.0,74.06,9.06,33.06
25518,-0.06,0.01,9.59,0.0,-0.0,0.0,74.06,9.06,33.06
25520,-0.06,0.01,9.59,0.0,-0.0,0.0,74.06,9.06,33.06
25526,-0.05,0.04,9.59,0.0,-0.0,-0.0,74.06,9.06,33.06
25527,-0.05,0.04,9.59,0.0,-0.0,-0.0,74.06,9.06,33.06
25529,-0.05,0.04,9.59,0.0,-0.0,-0.0,74.06,9.06,33.06
25535,-0.04,0.01,9.58,-0.0,-0.0,-0.0,73.69,10.5,34.0
25537,-0.04,0.01,9.58,-0.0,-0.0,-0.0,73.69,10.5,34.0
25539,-0.04,0.01,9.58,-0.0,-0.0,-0.0,73.69,10.5,34.0
25543,-0.04,0.01,9.58,0.0,0.0,0.0,73.69,10.5,34.0
25546,-0.05,0.0,9.59,0.0,0.0,0.0,73.69,10.5,34.0
25548,-0.05,0.0,9.59,0.0,0.0,0.0,73.69,10.5,34.0
25549,-0.05,0.0,9.59,0.0,0.0,0.0,73.69,10.5,34.0
25556,-0.06,0.0,9.58,0.0,-0.0,0.0,73.69,10.5,34.0
25557,-0.06,0.0,9.58,0.0,-0.0,0.0,73.69,10.5,34.0
25559,-0.06,0.0,9.58,0.0,-0.0,0.0,73.69,10.5,34.0
25565,-0.02,0.0,9.57,0.0,0.0,0.0,73.69,10.5,34.0
25567,-0.02,0.0,9.57,0.0,0.0,0.0,73.69,10.5,34.0
25569,-0.02,0.0,9.57,0.0,0.0,0.0,73.69,10.5,34.0
25575,-0.03,-0.01,9.59,0.0,-0.0,0.0,73.69,10.5,34.0
25577,-0.03,-0.01,9.59,0.0,-0.0,0.0,73.69,10.5,34.0
25578,-0.03,-0.01,9.59,0.0,-0.0,0.0,73.69,10.5,34.0
25580,-0.03,-0.01,9.59,0.0,-0.0,0.0,73.69,10.5,34.0
25582,-0.03,-0.01,9.59,0.0,-0.0,0.0,73.69,10.5,34.0
25584,-0.03,-0.01,9.59,0.0,0.0,-0.0,73.69,9.69,34.0
25586,-0.04,-0.01,9.58,0.0,0.0,-0.0,73.69,9.69,34.0
25588,-0.04,-0.01,9.58,0.0,0.0,-0.0,73.69,9.69,34.0
25590,-0.04,-0.01,9.58,0.0,0.0,-0.0,73.69,9.69,34.0
25596,-0.05,0.0,9.6,0.0,-0.0,0.0,73.69,9.69,34.0
25597,-0.05,0.0,9.6,0.0,-0.0,0.0,73.69,9.69,34.0
25599,-0.05,0.0,9.6,0.0,-0.0,0.0,73.69,9.69,34.0
25605,-0.04,0.0,9.57,0.0,-0.0,0.0,73.69,9.69,34.0
25607,-0.04,0.0,9.57,0.0,-0.0,0.0,73.69,9.69,34.0
25609,-0.04,0.0,9.57,0.0,-0.0,0.0,73.69,9.69,34.0
25615,-0.03,0.02,9.6,0.0,-0.0,0.0,73.69,9.69,34.0
25616,-0.03,0.02,9.6,0.0,-0.0,0.0,73.69,9.69,34.0
25618,-0.03,0.02,9.6,0.0,-0.0,0.0,73.69,9.69,34.0
25620,-0.03,0.02,9.6,0.0,-0.0,0.0,73.69,9.69,34.0
25626,-0.05,0.01,9.57,0.0,-0.0,-0.0,73.69,9.69,34.0
25628,-0.05,0.01,9.57,0.0,-0.0,-0.0,73.69,9.69,34.0
25629,-0.05,0.01,9.57,0.0,-0.0,-0.0,73.69,9.69,34.0
25631,-0.05,0.01,9.57,0.0,-0.0,-0.0,73.69,9.69,34.0
25633,-0.05,0.01,9.57,0.0,-0.0,-0.0,74.0,9.69,33.56
25636,-0.04,0.03,9.58,0.0,-0.0,-0.0,74.0,9.69,33.56
25638,-0.04,0.03,9.58,0.0,-0.0,-0.0,74.0,9.69,33.56
25640,-0.04,0.03,9.58,0.0,-0.0,-0.0,74.0,9.69,33.56
25646,-0.02,0.02,9.57,0.0,-0.0,0.0,74.0,9.69,33.56
25647,-0.02,0.02,9.57,0.0,-0.0,0.0,74.0,9.69,33.56
25649,-0.02,0.02,9.57,0.0,-0.0,0.0,74.0,9.69,33.56
25656,-0.03,0.01,9.58,0.0,-0.0,0.0,74.0,9.69,33.56
25657,-0.03,0.01,9.58,0.0,-0.0,0.0,74.0,9.69,33.56
25659,-0.03,0.01,9.58,0.0,-0.0,0.0,74.0,9.69,33.56
25666,-0.05,0.01,9.6,0.0,-0.0,0.0,74.0,9.69,33.56
25667,-0.05,0.01,9.6,0.0,-0.0,0.0,74.0,9.69,33.56
25669,-0.05,0.01,9.6,0.0,-0.0,0.0,74.0,9.69,33.56
25675,-0.03,0.0,9.55,0.0,0.0,0.0,74.0,9.69,33.56
25677,-0.03,0.0,9.55,0.0,0.0,0.0,74.0,9.69,33.56
25679,-0.03,0.0,9.55,0.0,0.0,0.0,74.0,9.69,33.56
25680,-0.03,0.0,9.55,0.0,0.0,0.0,74.0,9.69,33.56
25682,-0.03,0.0,9.55,0.0,0.0,0.0,74.0,9.69,33.56
25684,-0.03,0.0,9.55,0.0,0.0,0.0,73.25,9.69,33.56
25686,-0.05,0.0,9.56,0.0,0.0,0.0,73.25,9.69,33.56
25688,-0.05,0.0,9.56,0.0,0.0,0.0,73.25,9.69,33.56
25690,-0.05,0.0,9.56,0.0,0.0,0.0,73.25,9.69,33.56
25695,-0.03,0.0,9.57,0.0,0.0,0.0,73.25,9.69,33.56
25697,-0.03,0.0,9.57,0.0,0.0,0.0,73.25,9.69,33.56
25699,-0.03,0.0,9.57,0.0,0.0,0.0,73.25,9.69,33.56
25706,-0.03,-0.01,9.56,0.0,0.0,0.0,73.25,9.69,33.56
25707,-0.03,-0.01,9.56,0.0,0.0,0.0,73.25,9.69,33.56
25709,-0.03,-0.01,9.56,0.0,0.0,0.0,73.25,9.69,33.56
25715,-0.04,-0.01,9.58,0.0,0.0,0.0,73.25,9.69,33.56
25717,-0.04,-0.01,9.58,0.0,0.0,0.0,73.25,9.69,33.56
25718,-0.04,-0.01,9.58,0.0,0.0,0.0,73.25,9.69,33.56
25720,-0.04,-0.01,9.58,0.0,0.0,0.0,73.25,9.69,33.56
25726,-0.01,0.0,9.59,0.0,-0.0,0.0,73.25,9.69,33.56
25728,-0.01,0.0,9.59,0.0,-0.0,0.0,73.25,9.69,33.56
25730,-0.01,0.0,9.59,0.0,-0.0,0.0,73.25,9.69,33.56
25731,-0.01,0.0,9.59,0.0,-0.0,0.0,73.25,9.69,33.56
25733,-0.01,0.0,9.59,0.0,-0.0,0.0,74.06,9.69,34.75
25736,-0.03,-0.01,9.58,0.0,-0.0,0.0,74.06,9.69,34.75
25738,-0.03,-0.01,9.58,0.0,-0.0,0.0,74.06,9.69,34.75
25740,-0.03,-0.01,9.58,0.0,-0.0,0.0,74.06,9.69,34.75
25745,-0.04,0.0,9.59,0.0,-0.0,-0.0,74.06,9.69,34.75
25747,-0.04,0.0,9.59,0.0,-0.0,-0.0,74.06,9.69,34.75
25749,-0.04,0.0,9.59,0.0,-0.0,-0.0,74.06,9.69,34.75
25755,-0.03,0.02,9.6,0.0,-0.0,0.0,74.06,9.69,34.75
25757,-0.03,0.02,9.6,0.0,-0.0,0.0,74.06,9.69,34.75
25759,-0.03,0.02,9.6,0.0,-0.0,0.0,74.06,9.69,34.75
25765,-0.05,0.01,9.57,0.0,-0.0,0.0,74.06,9.69,34.75
25767,-0.05,0.01,9.57,0.0,-0.0,0.0,74.06,9.69,34.75
25768,-0.05,0.01,9.57,0.0,-0.0,0.0,74.06,9.69,34.75
25770,-0.05,0.01,9.57,0.0,-0.0,0.0,74.06,9.69,34.75
25776,-0.04,0.0,9.59,0.0,-0.0,0.0,74.06,9.69,34.75
25778,-0.04,0.0,9.59,0.0,-0.0,0.0,74.06,9.69,34.75
25779,-0.04,0.0,9.59,0.0,-0.0,0.0,74.06,9.69,34.75
25781,-0.04,0.0,9.59,0.0,-0.0,0.0,74.06,9.69,34.75
25783,-0.04,0.0,9.59,0.0,-0.0,0.0,72.87,9.38,33.56
25786,-0.03,0.0,9.59,0.0,-0.0,0.0,72.87,9.38,33.56
25788,-0.03,0.0,9.59,0.0,-0.0,0.0,72.87,9.38,33.56
25789,-0.03,0.0,9.59,0.0,-0.0,0.0,72.87,9.38,33.56
25796,-0.03,0.01,9.59,0.0,-0.0,0.0,72.87,9.38,33.56
25797,-0.03,0.01,9.59,0.0,-0.0,0.0,72.87,9.38,33.56
25799,-0.03,0.01,9.59,0.0,-0.0,0.0,72.87,9.38,33.56
25806,-0.04,0.0,9.59,0.0,0.0,0.0,72.87,9.38,33.56
25807,-0.04,0.0,9.59,0.0,0.0,0.0,72.87,9.38,33.56
25809,-0.04,0.0,9.59,0.0,0.0,0.0,72.87,9.38,33.56
25815,-0.03,0.02,9.6,0.0,-0.0,0.0,72.87,9.38,33.56
25817,-0.03,0.02,9.6,0.0,-0.0,0.0,72.87,9.38,33.56
25819,-0.03,0.02,9.6,0.0,-0.0,0.0,72.87,9.38,33.56
25823,-0.03,0.02,9.6,0.0,-0.0,0.0,72.87,9.38,33.56
25826,-0.05,0.0,9.6,0.0,-0.0,0.0,72.87,9.38,33.56
25828,-0.05,0.0,9.6,0.0,-0.0,0.0,72.87,9.38,33.56
25830,-0.05,0.0,9.6,0.0,-0.0,0.0,72.87,9.38,33.56
25832,-0.05,0.0,9.6,0.0,-0.0,0.0,72.87,9.38,33.56
25834,-0.05,0.0,9.6,0.0,0.0,0.0,73.25,9.0,33.56
25836,-0.02,0.0,9.57,0.0,0.0,0.0,73.25,9.0,33.56
25838,-0.02,0.0,9.57,0.0,0.0,0.0,73.25,9.0,33.56
25840,-0.02,0.0,9.57,0.0,0.0,0.0,73.25,9.0,33.56
25846,-0.03,0.0,9.61,0.0,0.0,-0.0,73.25,9.0,33.56
25847,-0.03,0.0,9.61,0.0,0.0,-0.0,73.25,9.0,33.56
25849,-0.03,0.0,9.61,0.0,0.0,-0.0,73.25,9.0,33.56
25856,-0.04,0.0,9.57,0.0,-0.01,0.0,73.25,9.0,33.56
25857,-0.04,0.0,9.57,0.0,-0.01,0.0,73.25,9.0,33.56
25859,-0.04,0.0,9.57,0.0,-0.01,0.0,73.25,9.0,33.56
25866,-0.05,0.0,9.58,0.0,-0.0,0.0,73.25,9.0,33.56
25867,-0.05,0.0,9.58,0.0,-0.0,0.0,73.25,9.0,33.56
25869,-0.05,0.0,9.58,0.0,-0.0,0.0,73.25,9.0,33.56
25875,-0.04,0.02,9.59,0.0,0.0,0.0,73.25,9.0,33.56
25877,-0.04,0.02,9.59,0.0,0.0,0.0,73.25,9.0,33.56
25878,-0.04,0.02,9.59,0.0,0.0,0.0,73.25,9.0,33.56
25880,-0.04,0.02,9.59,0.0,0.0,0.0,73.25,9.0,33.56
25882,-0.04,0.02,9.59,0.0,0.0,0.0,73.25,9.0,33.56
25883,-0.04,0.02,9.59,0.0,0.0,0.0,72.87,9.38,34.0
25886,-0.04,0.01,9.59,0.0,0.0,0.0,72.87,9.38,34.0
25888,-0.04,0.01,9.59,0.0,0.0,0.0,72.87,9.38,34.0
25890,-0.04,0.01,9.59,0.0,0.0,0.0,72.87,9.38,34.0
25895,-0.03,0.02,9.56,-0.0,0.0,0.0,72.87,9.38,34.0
25897,-0.03,0.02,9.56,-0.0,0.0,0.0,72.87,9.38,34.0
25899,-0.03,0.02,9.56,-0.0,0.0,0.0,72.87,9.38,34.0
25906,-0.03,0.03,9.59,0.0,0.0,0.0,72.87,9.38,34.0
25907,-0.03,0.03,9.59,0.0,0.0,0.0,72.87,9.38,34.0
25909,-0.03,0.03,9.59,0.0,0.0,0.0,72.87,9.38,34.0
25915,-0.02,0.04,9.59,0.0,0.0,0.0,72.87,9.38,34.0
25917,-0.02,0.04,9.59,0.0,0.0,0.0,72.87,9.38,34.0
25918,-0.02,0.04,9.59,0.0,0.0,0.0,72.87,9.38,34.0
25921,-0.02,0.04,9.59,0.0,0.0,0.0,72.87,9.38,34.0
25926,-0.03,0.0,9.58,0.0,0.0,0.0,72.87,9.38,34.0
25928,-0.03,0.0,9.58,0.0,0.0,0.0,72.87,9.38,34.0
25929,-0.03,0.0,9.58,0.0,0.0,0.0,72.87,9.38,34.0
25931,-0.03,0.0,9.58,0.0,0.0,0.0,72.87,9.38,34.0
25933,-0.03,0.0,9.58,0.0,0.0,0.0,72.87,9.38,33.56
25936,-0.05,0.0,9.58,0.0,0.0,0.0,72.87,9.38,33.56
25938,-0.05,0.0,9.58,0.0,0.0,0.0,72.87,9.38,33.56
25939,-0.05,0.0,9.58,0.0,0.0,0.0,72.87,9.38,33.56
25945,-0.03,0.0,9.59,-0.0,-0.0,0.0,72.87,9.38,33.56
25947,-0.03,0.0,9.59,-0.0,-0.0,0.0,72.87,9.38,33.56
25949,-0.03,0.0,9.59,-0.0,-0.0,0.0,72.87,9.38,33.56
25955,-0.02,-0.02,9.58,0.0,-0.0,0.0,72.87,9.38,33.56
25957,-0.02,-0.02,9.58,0.0,-0.0,0.0,72.87,9.38,33.56
25959,-0.02,-0.02,9.58,0.0,-0.0,0.0,72.87,9.38,33.56
25965,-0.03,-0.01,9.57,0.0,0.0,-0.0,72.87,9.38,33.56
25966,-0.03,-0.01,9.57,0.0,0.0,-0.0,72.87,9.38,33.56
25968,-0.03,-0.01,9.57,0.0,0.0,-0.0,72.87,9.38,33.56
25970,-0.03,-0.01,9.57,0.0,0.0,-0.0,72.87,9.38,33.56
25976,-0.05,-0.01,9.58,0.0,-0.0,0.0,72.87,9.38,33.56
25978,-0.05,-0.01,9.58,0.0,-0.0,0.0,72.87,9.38,33.56
25979,-0.05,-0.01,9.58,0.0,-0.0,0.0,72.87,9.38,33.56
25981,-0.05,-0.01,9.58,0.0,-0.0,0.0,72.87,9.38,33.56
25983,-0.05,-0.01,9.58,0.0,-0.0,0.0,72.87,9.38,33.56
25984,-0.02,0.0,9.58,-0.0,0.0,0.0,72.87,10.5,34.38
25986,-0.02,0.0,9.58,-0.0,0.0,0.0,72.87,10.5,34.38
25988,-0.02,0.0,9.58,-0.0,0.0,0.0,72.87,10.5,34.38
25990,-0.02,0.0,9.58,-0.0,0.0,0.0,72.87,10.5,34.38
25995,-0.01,0.0,9.6,-0.0,0.0,0.0,72.87,10.5,34.38
25997,-0.01,0.0,9.6,-0.0,0.0,0.0,72.87,10.5,34.38
25999,-0.01,0.0,9.6,-0.0,0.0,0.0,72.87,10.5,34.38
26005,-0.01,0.0,9.58,0.0,0.0,-0.0,72.87,10.5,34.38
26007,-0.01,0.0,9.58,0.0,0.0,-0.0,72.87,10.5,34.38
26009,-0.01,0.0,9.58,0.0,0.0,-0.0,72.87,10.5,34.38
26015,-0.02,0.01,9.59,0.0,0.0,-0.0,72.87,10.5,34.38
26017,-0.02,0.01,9.59,0.0,0.0,-0.0,72.87,10.5,34.38
26018,-0.02,0.01,9.59,0.0,0.0,-0.0,72.87,10.5,34.38
26021,-0.02,0.01,9.59,0.0,0.0,-0.0,72.87,10.5,34.38
26026,-0.03,0.01,9.57,0.0,0.0,-0.0,72.87,10.5,34.38
26028,-0.03,0.01,9.57,0.0,0.0,-0.0,72.87,10.5,34.38
26029,-0.03,0.01,9.57,0.0,0.0,-0.0,72.87,10.5,34.38
26031,-0.03,0.01,9.57,0.0,0.0,-0.0,72.87,10.5,34.38
26033,-0.03,0.01,9.57,-0.0,0.0,-0.0,73.69,9.06,34.0
26036,-0.05,0.04,9.58,-0.0,0.0,-0.0,73.69,9.06,34.0
26038,-0.05,0.04,9.58,-0.0,0.0,-0.0,73.69,9.06,34.0
26040,-0.05,0.04,9.58,-0.0,0.0,-0.0,73.69,9.06,34.0
26045,-0.03,0.01,9.59,-0.0,0.0,0.0,73.69,9.06,34.0
26047,-0.03,0.01,9.59,-0.0,0.0,0.0,73.69,9.06,34.0
26049,-0.03,0.01,9.59,-0.0,0.0,0.0,73.69,9.06,34.0
26055,-0.03,-0.01,9.58,0.0,0.0,0.0,73.69,9.06,34.0
26057,-0.03,-0.01,9.58,0.0,0.0,0.0,73.69,9.06,34.0
26059,-0.03,-0.01,9.58,0.0,0.0,0.0,73.69,9.06,34.0
26065,-0.03,0.0,9.55,0.0,0.0,0.0,73.69,9.06,34.0
26066,-0.03,0.0,9.55,0.0,0.0,0.0,73.69,9.06,34.0
26068,-0.03,0.0,9.55,0.0,0.0,0.0,73.69,9.06,34.0
26070,-0.03,0.0,9.55,0.0,0.0,0.0,73.69,9.06,34.0
26076,-0.05,0.0,9.57,0.0,-0.0,0.0,73.69,9.06,34.0
26077,-0.05,0.0,9.57,0.0,-0.0,0.0,73.69,9.06,34.0
26079,-0.05,0.0,9.57,0.0,-0.0,0.0,73.69,9.06,34.0
26081,-0.05,0.0,9.57,0.0,-0.0,0.0,73.69,9.06,34.0
26082,-0.05,0.0,9.57,0.0,-0.0,0.0,74.0,10.06,33.56
26086,-0.05,0.0,9.61,-0.0,0.0,-0.0,74.0,10.06,33.56
26087,-0.05,0.0,9.61,-0.0,0.0,-0.0,74.0,10.06,33.56
26089,-0.05,0.0,9.61,-0.0,0.0,-0.0,74.0,10.06,33.56
26095,-0.05,-0.01,9.56,0.0,0.0,0.0,74.0,10.06,33.56
26097,-0.05,-0.01,9.56,0.0,0.0,0.0,74.0,10.06,33.56
26099,-0.05,-0.01,9.56,0.0,0.0,0.0,74.0,10.06,33.56
26105,-0.03,-0.01,9.56,0.0,0.0,-0.0,74.0,10.06,33.56
26107,-0.03,-0.01,9.56,0.0,0.0,-0.0,74.0,10.06,33.56
26109,-0.03,-0.01,9.56,0.0,0.0,-0.0,74.0,10.06,33.56
26113,-0.03,-0.01,9.56,0.0,0.0,0.0,74.0,10.06,33.56
26116,-0.01,0.0,9.58,0.0,0.0,0.0,74.0,10.06,33.56
26118,-0.01,0.0,9.58,0.0,0.0,0.0,74.0,10.06,33.56
26120,-0.01,0.0,9.58,0.0,0.0,0.0,74.0,10.06,33.56
26126,-0.02,0.01,9.63,-0.0,0.0,-0.0,74.0,10.06,33.56
26127,-0.02,0.01,9.63,-0.0,0.0,-0.0,74.0,10.06,33.56
26129,-0.02,0.01,9.63,-0.0,0.0,-0.0,74.0,10.06,33.56
26131,-0.02,0.01,9.63,-0.0,0.0,-0.0,74.0,10.06,33.56
26133,-0.02,0.01,9.63,-0.0,0.0,-0.0,72.87,8.69,33.56
26136,-0.06,0.0,9.56,-0.0,0.0,-0.0,72.87,8.69,33.56
26138,-0.06,0.0,9.56,-0.0,0.0,-0.0,72.87,8.69,33.56
26140,-0.06,0.0,9.56,-0.0,0.0,-0.0,72.87,8.69,33.56
26145,-0.04,0.01,9.57,0.0,0.0,0.0,72.87,8.69,33.56
26147,-0.04,0.01,9.57,0.0,0.0,0.0,72.87,8.69,33.56
26149,-0.04,0.01,9.57,0.0,0.0,0.0,72.87,8.69,33.56
26155,-0.03,0.02,9.61,0.0,-0.0,0.0,72.87,8.69,33.56
26157,-0.03,0.02,9.61,0.0,-0.0,0.0,72.87,8.69,33.56
26159,-0.03,0.02,9.61,0.0,-0.0,0.0,72.87,8.69,33.56
26165,-0.03,0.03,9.61,0.0,0.0,-0.0,72.87,8.69,33.56
26167,-0.03,0.03,9.61,0.0,0.0,-0.0,72.87,8.69,33.56
26168,-0.03,0.03,9.61,0.0,0.0,-0.0,72.87,8.69,33.56
26173,-0.03,0.03,9.61,0.0,-0.0,0.0,72.87,8.69,33.56
26176,-0.04,0.02,9.54,0.0,-0.0,0.0,72.87,8.69,33.56
26178,-0.04,0.02,9.54,0.0,-0.0,0.0,72.87,8.69,33.56
26179,-0.04,0.02,9.54,0.0,-0.0,0.0,72.87,8.69,33.56
26181,-0.04,0.02,9.54,0.0,-0.0,0.0,72.87,8.69,33.56
26183,-0.04,0.02,9.54,-0.0,0.0,0.0,73.25,9.69,34.38
26186,-0.04,0.0,9.61,-0.0,0.0,0.0,73.25,9.69,34.38
26188,-0.04,0.0,9.61,-0.0,0.0,0.0,73.25,9.69,34.38
26190,-0.04,0.0,9.61,-0.0,0.0,0.0,73.25,9.69,34.38
26195,-0.04,0.02,9.61,-0.0,0.0,-0.0,73.25,9.69,34.38
26197,-0.04,0.02,9.61,-0.0,0.0,-0.0,73.25,9.69,34.38
26199,-0.04,0.02,9.61,-0.0,0.0,-0.0,73.25,9.69,34.38
26205,-0.04,0.0,9.58,0.0,-0.0,-0.0,73.25,9.69,34.38
26207,-0.04,0.0,9.58,0.0,-0.0,-0.0,73.25,9.69,34.38
26209,-0.04,0.0,9.58,0.0,-0.0,-0.0,73.25,9.69,34.38
26214,-0.03,-0.01,9.6,0.0,-0.0,0.0,73.25,9.69,34.38
26216,-0.03,-0.01,9.6,0.0,-0.0,0.0,73.25,9.69,34.38
26218,-0.03,-0.01,9.6,0.0,-0.0,0.0,73.25,9.69,34.38
26220,-0.03,-0.01,9.6,0.0,-0.0,0.0,73.25,9.69,34.38
26226,-0.04,-0.02,9.64,0.0,-0.0,0.0,73.25,9.69,34.38
26227,-0.04,-0.02,9.64,0.0,-0.0,0.0,73.25,9.69,34.38
26229,-0.04,-0.02,9.64,0.0,-0.0,0.0,73.25,9.69,34.38
26231,-0.04,-0.02,9.64,0.0,-0.0,0.0,73.25,9.69,34.38
26232,-0.04,-0.02,9.64,0.0,0.0,-0.0,72.87,10.06,33.06
26236,-0.04,-0.02,9.6,0.0,0.0,-0.0,72.87,10.06,33.06
26238,-0.04,-0.02,9.6,0.0,0.0,-0.0,72.87,10.06,33.06
26240,-0.04,-0.02,9.6,0.0,0.0,-0.0,72.87,10.06,33.06
26245,-0.03,-0.01,9.55,0.0,0.0,0.0,72.87,10.06,33.06
26247,-0.03,-0.01,9.55,0.0,0.0,0.0,72.87,10.06,33.06
26249,-0.03,-0.01,9.55,0.0,0.0,0.0,72.87,10.06,33.06
26255,-0.02,0.0,9.66,0.0,-0.0,0.0,72.87,10.06,33.06
26257,-0.02,0.0,9.66,0.0,-0.0,0.0,72.87,10.06,33.06
26259,-0.02,0.0,9.66,0.0,-0.0,0.0,72.87,10.06,33.06
26265,-0.03,-0.01,9.64,0.0,-0.0,-0.0,72.87,10.06,33.06
26267,-0.03,-0.01,9.64,0.0,-0.0,-0.0,72.87,10.06,33.06
26268,-0.03,-0.01,9.64,0.0,-0.0,-0.0,72.87,10.06,33.06
26271,-0.03,-0.01,9.64,0.0,-0.0,-0.0,72.87,10.06,33.06
26276,-0.04,0.0,9.49,0.0,0.0,-0.0,72.87,10.06,33.06
26278,-0.04,0.0,9.49,0.0,0.0,-0.0,72.87,10.06,33.06
26279,-0.04,0.0,9.49,0.0,0.0,-0.0,72.87,10.06,33.06
26281,-0.04,0.0,9.49,0.0,0.0,-0.0,72.87,10.06,33.06
26283,-0.04,0.0,9.49,0.0,0.0,0.0,73.69,9.69,33.06
26286,-0.05,0.03,9.66,0.0,0.0,0.0,73.69,9.69,33.06
26288,-0.05,0.03,9.66,0.0,0.0,0.0,73.69,9.69,33.06
26289,-0.05,0.03,9.66,0.0,0.0,0.0,73.69,9.69,33.06
26295,-0.03,0.03,9.66,0.0,0.0,-0.0,73.69,9.69,33.06
26297,-0.03,0.03,9.66,0.0,0.0,-0.0,73.69,9.69,33.06
26299,-0.03,0.03,9.66,0.0,0.0,-0.0,73.69,9.69,33.06
26305,-0.04,0.01,9.52,0.0,0.0,-0.0,73.69,9.69,33.06
26307,-0.04,0.01,9.52,0.0,0.0,-0.0,73.69,9.69,33.06
26309,-0.04,0.01,9.52,0.0,0.0,-0.0,73.69,9.69,33.06
26315,-0.05,0.02,9.49,0.0,0.0,-0.0,73.69,9.69,33.06
26317,-0.05,0.02,9.49,0.0,0.0,-0.0,73.69,9.69,33.06
26319,-0.05,0.02,9.49,0.0,0.0,-0.0,73.69,9.69,33.06
26325,-0.04,0.02,9.67,-0.0,0.0,0.0,73.69,9.69,33.06
26327,-0.04,0.02,9.67,-0.0,0.0,0.0,73.69,9.69,33.06
26328,-0.04,0.02,9.67,-0.0,0.0,0.0,73.69,9.69,33.06
26330,-0.04,0.02,9.67,-0.0,0.0,0.0,73.69,9.69,33.06
26332,-0.04,0.02,9.67,-0.0,0.0,0.0,73.69,9.69,33.06
26335,-0.04,0.0,9.55,0.0,-0.0,0.0,73.25,9.38,32.75
26337,-0.04,0.0,9.55,0.0,-0.0,0.0,73.25,9.38,32.75
26339,-0.04,0.0,9.55,0.0,-0.0,0.0,73.25,9.38,32.75
26345,-0.01,0.01,9.53,0.0,0.0,0.0,73.25,9.38,32.75
26347,-0.01,0.01,9.53,0.0,0.0,0.0,73.25,9.38,32.75
26349,-0.01,0.01,9.53,0.0,0.0,0.0,73.25,9.38,32.75
26355,-0.04,-0.01,9.66,-0.0,0.0,0.0,73.25,9.38,32.75
26357,-0.04,-0.01,9.66,-0.0,0.0,0.0,73.25,9.38,32.75
26359,-0.04,-0.01,9.66,-0.0,0.0,0.0,73.25,9.38,32.75
26365,-0.03,0.0,9.58,0.0,0.0,0.0,73.25,9.38,32.75
26367,-0.03,0.0,9.58,0.0,0.0,0.0,73.25,9.38,32.75
26369,-0.03,0.0,9.58,0.0,0.0,0.0,73.25,9.38,32.75
26374,-0.05,-0.01,9.53,0.0,-0.0,-0.0,73.25,9.38,32.75
26376,-0.05,-0.01,9.53,0.0,-0.0,-0.0,73.25,9.38,32.75
26378,-0.05,-0.01,9.53,0.0,-0.0,-0.0,73.25,9.38,32.75
26380,-0.05,-0.01,9.53,0.0,-0.0,-0.0,73.25,9.38,32.75
26381,-0.05,-0.01,9.53,0.0,-0.0,-0.0,73.25,9.38,32.75
26383,-0.05,-0.01,9.53,0.0,0.0,0.0,73.56,9.69,34.0
26386,-0.03,-0.02,9.6,0.0,0.0,0.0,73.56,9.69,34.0
26388,-0.03,-0.02,9.6,0.0,0.0,0.0,73.56,9.69,34.0
26390,-0.03,-0.02,9.6,0.0,0.0,0.0,73.56,9.69,34.0
26395,-0.04,-0.01,9.61,0.0,-0.0,0.0,73.56,9.69,34.0
26397,-0.04,-0.01,9.61,0.0,-0.0,0.0,73.56,9.69,34.0
26399,-0.04,-0.01,9.61,0.0,-0.0,0.0,73.56,9.69,34.0
26405,-0.03,0.0,9.52,-0.0,-0.0,0.0,73.56,9.69,34.0
26407,-0.03,0.0,9.52,-0.0,-0.0,0.0,73.56,9.69,34.0
26409,-0.03,0.0,9.52,-0.0,-0.0,0.0,73.56,9.69,34.0
26415,-0.05,0.0,9.56,0.0,-0.0,0.0,73.56,9.69,34.0
26417,-0.05,0.0,9.56,0.0,-0.0,0.0,73.56,9.69,34.0
26418,-0.05,0.0,9.56,0.0,-0.0,0.0,73.56,9.69,34.0
26423,-0.05,0.0,9.56,0.0,-0.0,0.0,73.56,9.69,34.0
26426,-0.04,0.02,9.61,0.0,-0.0,0.0,73.56,9.69,34.0
26428,-0.04,0.02,9.61,0.0,-0.0,0.0,73.56,9.69,34.0
26429,-0.04,0.02,9.61,0.0,-0.0,0.0,73.56,9.69,34.0
26431,-0.04,0.02,9.61,0.0,-0.0,0.0,73.56,9.69,34.0
26434,-0.04,0.02,9.61,-0.0,0.0,-0.0,74.06,10.06,34.75
26436,-0.02,0.02,9.59,-0.0,0.0,-0.0,74.06,10.06,34.75
26438,-0.02,0.02,9.59,-0.0,0.0,-0.0,74.06,10.06,34.75
26440,-0.02,0.02,9.59,-0.0,0.0,-0.0,74.06,10.06,34.75
26445,-0.02,0.0,9.6,0.0,-0.0,0.0,74.06,10.06,34.75
26447,-0.02,0.0,9.6,0.0,-0.0,0.0,74.06,10.06,34.75
26449,-0.02,0.0,9.6,0.0,-0.0,0.0,74.06,10.06,34.75
26455,-0.01,0.0,9.59,0.0,-0.0,0.0,74.06,10.06,34.75
26457,-0.01,0.0,9.59,0.0,-0.0,0.0,74.06,10.06,34.75
26459,-0.01,0.0,9.59,0.0,-0.0,0.0,74.06,10.06,34.75
26464,-0.02,-0.01,9.59,0.0,0.0,-0.0,74.06,10.06,34.75
26466,-0.02,-0.01,9.59,0.0,0.0,-0.0,74.06,10.06,34.75
26468,-0.02,-0.01,9.59,0.0,0.0,-0.0,74.06,10.06,34.75
26470,-0.02,-0.01,9.59,0.0,0.0,-0.0,74.06,10.06,34.75
26475,-0.03,-0.04,9.59,0.0,0.0,-0.0,74.06,10.06,34.75
26477,-0.03,-0.04,9.59,0.0,0.0,-0.0,74.06,10.06,34.75
26479,-0.03,-0.04,9.59,0.0,0.0,-0.0,74.06,10.06,34.75
26481,-0.03,-0.04,9.59,0.0,0.0,-0.0,74.06,10.06,34.75
26482,-0.03,-0.04,9.59,0.0,0.0,-0.0,74.06,10.06,34.75
26484,-0.05,-0.01,9.58,0.0,0.0,-0.0,73.69,9.38,34.0
26486,-0.05,-0.01,9.58,0.0,0.0,-0.0,73.69,9.38,34.0
26488,-0.05,-0.01,9.58,0.0,0.0,-0.0,73.69,9.38,34.0
26490,-0.05,-0.01,9.58,0.0,0.0,-0.0,73.69,9.38,34.0
26496,-0.05,0.0,9.59,0.0,-0.0,0.0,73.69,9.38,34.0
26497,-0.05,0.0,9.59,0.0,-0.0,0.0,73.69,9.38,34.0
26499,-0.05,0.0,9.59,0.0,-0.0,0.0,73.69,9.38,34.0
26505,-0.02,0.0,9.56,-0.0,-0.0,0.0,73.69,9.38,34.0
26507,-0.02,0.0,9.56,-0.0,-0.0,0.0,73.69,9.38,34.0
26509,-0.02,0.0,9.56,-0.0,-0.0,0.0,73.69,9.38,34.0
26515,-0.03,0.02,9.57,0.0,-0.0,0.0,73.69,9.38,34.0
26517,-0.03,0.02,9.57,0.0,-0.0,0.0,73.69,9.38,34.0
26518,-0.03,0.02,9.57,0.0,-0.0,0.0,73.69,9.38,34.0
26523,-0.03,0.02,9.57,-0.0,-0.0,0.0,73.69,9.38,34.0
26526,-0.03,0.01,9.61,-0.0,-0.0,0.0,73.69,9.38,34.0
26528,-0.03,0.01,9.61,-0.0,-0.0,0.0,73.69,9.38,34.0
26529,-0.03,0.01,9.61,-0.0,-0.0,0.0,73.69,9.38,34.0
26531,-0.03,0.01,9.61,-0.0,-0.0,0.0,73.69,9.38,34.0
26533,-0.03,0.01,9.61,-0.0,-0.0,0.0,73.25,10.06,35.19
26536,-0.02,0.02,9.57,-0.0,-0.0,0.0,73.25,10.06,35.19
26538,-0.02,0.02,9.57,-0.0,-0.0,0.0,73.25,10.06,35.19
26539,-0.02,0.02,9.57,-0.0,-0.0,0.0,73.25,10.06,35.19
26545,-0.02,0.03,9.6,-0.0,0.0,0.0,73.25,10.06,35.19
26547,-0.02,0.03,9.6,-0.0,0.0,0.0,73.25,10.06,35.19
26549,-0.02,0.03,9.6,-0.0,0.0,0.0,73.25,10.06,35.19
26555,-0.03,0.01,9.59,-0.0,-0.0,-0.0,73.25,10.06,35.19
26557,-0.03,0.01,9.59,-0.0,-0.0,-0.0,73.25,10.06,35.19
26559,-0.03,0.01,9.59,-0.0,-0.0,-0.0,73.25,10.06,35.19
26565,-0.05,0.02,9.59,-0.0,0.0,0.0,73.25,10.06,35.19
26567,-0.05,0.02,9.59,-0.0,0.0,0.0,73.25,10.06,35.19
26568,-0.05,0.02,9.59,-0.0,0.0,0.0,73.25,10.06,35.19
26575,-0.05,0.02,9.58,0.0,-0.0,0.0,73.25,10.06,35.19
26577,-0.05,0.02,9.58,0.0,-0.0,0.0,73.25,10.06,35.19
26578,-0.05,0.02,9.58,0.0,-0.0,0.0,73.25,10.06,35.19
26580,-0.05,0.02,9.58,0.0,-0.0,0.0,73.25,10.06,35.19
26582,-0.05,0.02,9.58,0.0,-0.0,0.0,73.25,10.06,35.19
26583,-0.05,0.02,9.58,0.0,0.0,0.0,73.25,9.69,32.75
26586,-0.04,0.02,9.58,0.0,0.0,0.0,73.25,9.69,32.75
26588,-0.04,0.02,9.58,0.0,0.0,0.0,73.25,9.69,32.75
26589,-0.04,0.02,9.58,0.0,0.0,0.0,73.25,9.69,32.75
26595,-0.07,0.02,9.58,0.0,-0.0,-0.0,73.25,9.69,32.75
26597,-0.07,0.02,9.58,0.0,-0.0,-0.0,73.25,9.69,32.75
26599,-0.07,0.02,9.58,0.0,-0.0,-0.0,73.25,9.69,32.75
26605,-0.03,-0.01,9.55,0.0,0.0,0.0,73.25,9.69,32.75
26607,-0.03,-0.01,9.55,0.0,0.0,0.0,73.25,9.69,32.75
26608,-0.03,-0.01,9.55,0.0,0.0,0.0,73.25,9.69,32.75
26615,-0.03,-0.03,9.59,-0.0,-0.0,-0.0,73.25,9.69,32.75
26616,-0.03,-0.03,9.59,-0.0,-0.0,-0.0,73.25,9.69,32.75
26618,-0.03,-0.03,9.59,-0.0,-0.0,-0.0,73.25,9.69,32.75
26623,-0.03,-0.03,9.59,0.0,-0.0,0.0,73.25,9.69,32.75
26626,-0.03,-0.03,9.59,0.0,-0.0,0.0,73.25,9.69,32.75
26628,-0.03,-0.03,9.59,0.0,-0.0,0.0,73.25,9.69,32.75
26629,-0.03,-0.03,9.59,0.0,-0.0,0.0,73.25,9.69,32.75
26631,-0.03,-0.03,9.59,0.0,-0.0,0.0,73.25,9.69,32.75
26633,-0.03,-0.03,9.59,0.0,-0.0,-0.0,74.0,9.38,33.56
26636,-0.04,-0.03,9.59,0.0,-0.0,-0.0,74.0,9.38,33.56
26638,-0.04,-0.03,9.59,0.0,-0.0,-0.0,74.0,9.38,33.56
26639,-0.04,-0.03,9.59,0.0,-0.0,-0.0,74.0,9.38,33.56
26645,-0.05,-0.02,9.6,0.0,0.0,-0.0,74.0,9.38,33.56
26647,-0.05,-0.02,9.6,0.0,0.0,-0.0,74.0,9.38,33.56
26649,-0.05,-0.02,9.6,0.0,0.0,-0.0,74.0,9.38,33.56
26655,-0.02,-0.05,9.56,0.0,-0.0,0.0,74.0,9.38,33.56
26657,-0.02,-0.05,9.56,0.0,-0.0,0.0,74.0,9.38,33.56
26659,-0.02,-0.05,9.56,0.0,-0.0,0.0,74.0,9.38,33.56
26665,-0.03,-0.02,9.56,0.0,0.0,0.0,74.0,9.38,33.56
26667,-0.03,-0.02,9.56,0.0,0.0,0.0,74.0,9.38,33.56
26668,-0.03,-0.02,9.56,0.0,0.0,0.0,74.0,9.38,33.56
26674,-0.03,-0.01,9.59,-0.0,0.0,0.0,74.0,9.38,33.56
26676,-0.03,-0.01,9.59,-0.0,0.0,0.0,74.0,9.38,33.56
26678,-0.03,-0.01,9.59,-0.0,0.0,0.0,74.0,9.38,33.56
26680,-0.03,-0.01,9.59,-0.0,0.0,0.0,74.0,9.38,33.56
26681,-0.03,-0.01,9.59,-0.0,0.0,0.0,74.0,9.38,33.56
26683,-0.03,-0.01,9.59,0.0,0.0,0.0,74.06,9.38,34.38
26686,-0.04,0.0,9.58,0.0,0.0,0.0,74.06,9.38,34.38
26688,-0.04,0.0,9.58,0.0,0.0,0.0,74.06,9.38,34.38
26689,-0.04,0.0,9.58,0.0,0.0,0.0,74.06,9.38,34.38
26695,-0.05,0.0,9.59,0.0,-0.0,0.0,74.06,9.38,34.38
26697,-0.05,0.0,9.59,0.0,-0.0,0.0,74.06,9.38,34.38
26699,-0.05,0.0,9.59,0.0,-0.0,0.0,74.06,9.38,34.38
26705,-0.01,0.02,9.56,0.0,-0.0,0.0,74.06,9.38,34.38
26707,-0.01,0.02,9.56,0.0,-0.0,0.0,74.06,9.38,34.38
26708,-0.01,0.02,9.56,0.0,-0.0,0.0,74.06,9.38,34.38
26715,-0.03,0.0,9.57,0.0,-0.0,-0.0,74.06,9.38,34.38
26716,-0.03,0.0,9.57,0.0,-0.0,-0.0,74.06,9.38,34.38
26718,-0.03,0.0,9.57,0.0,-0.0,-0.0,74.06,9.38,34.38
26723,-0.03,0.0,9.57,-0.0,-0.0,0.0,74.06,9.38,34.38
26726,-0.05,0.03,9.61,-0.0,-0.0,0.0,74.06,9.38,34.38
26728,-0.05,0.03,9.61,-0.0,-0.0,0.0,74.06,9.38,34.38
26729,-0.05,0.03,9.61,-0.0,-0.0,0.0,74.06,9.38,34.38
26731,-0.05,0.03,9.61,-0.0,-0.0,0.0,74.06,9.38,34.38
26733,-0.05,0.03,9.61,-0.0,-0.0,0.0,73.69,9.69,33.56
26736,-0.05,0.02,9.59,-0.0,-0.0,0.0,73.69,9.69,33.56
26737,-0.05,0.02,9.59,-0.0,-0.0,0.0,73.69,9.69,33.56
26739,-0.05,0.02,9.59,-0.0,-0.0,0.0,73.69,9.69,33.56
26745,-0.05,0.02,9.61,-0.0,-0.0,0.0,73.69,9.69,33.56
26747,-0.05,0.02,9.61,-0.0,-0.0,0.0,73.69,9.69,33.56
26749,-0.05,0.02,9.61,-0.0,-0.0,0.0,73.69,9.69,33.56
26755,-0.03,0.02,9.56,0.0,-0.0,0.0,73.69,9.69,33.56
26757,-0.03,0.02,9.56,0.0,-0.0,0.0,73.69,9.69,33.56
26758,-0.03,0.02,9.56,0.0,-0.0,0.0,73.69,9.69,33.56
26765,-0.01,0.03,9.58,-0.0,-0.0,-0.0,73.69,9.69,33.56
26766,-0.01,0.03,9.58,-0.0,-0.0,-0.0,73.69,9.69,33.56
26768,-0.01,0.03,9.58,-0.0,-0.0,-0.0,73.69,9.69,33.56
26773,-0.01,0.03,9.58,0.0,0.0,-0.0,73.69,9.69,33.56
26776,-0.04,0.0,9.56,0.0,0.0,-0.0,73.69,9.69,33.56
26778,-0.04,0.0,9.56,0.0,0.0,-0.0,73.69,9.69,33.56
26779,-0.04,0.0,9.56,0.0,0.0,-0.0,73.69,9.69,33.56
26781,-0.04,0.0,9.56,0.0,0.0,-0.0,73.69,9.69,33.56
26783,-0.04,0.0,9.56,-0.0,0.0,-0.0,73.69,10.06,32.0
26786,-0.06,0.0,9.55,-0.0,0.0,-0.0,73.69,10.06,32.0
26787,-0.06,0.0,9.55,-0.0,0.0,-0.0,73.69,10.06,32.0
26789,-0.06,0.0,9.55,-0.0,0.0,-0.0,73.69,10.06,32.0
26795,-0.09,0.0,9.61,0.0,-0.0,-0.0,73.69,10.06,32.0
26797,-0.09,0.0,9.61,0.0,-0.0,-0.0,73.69,10.06,32.0
26798,-0.09,0.0,9.61,0.0,-0.0,-0.0,73.69,10.06,32.0
26805,-0.04,0.0,9.58,0.0,0.0,-0.0,73.69,10.06,32.0
26807,-0.04,0.0,9.58,0.0,0.0,-0.0,73.69,10.06,32.0
26808,-0.04,0.0,9.58,0.0,0.0,-0.0,73.69,10.06,32.0
26814,-0.01,0.0,9.58,0.0,0.0,-0.0,73.69,10.06,32.0
26816,-0.01,0.0,9.58,0.0,0.0,-0.0,73.69,10.06,32.0
26818,-0.01,0.0,9.58,0.0,0.0,-0.0,73.69,10.06,32.0
26819,-0.01,0.0,9.58,0.0,0.0,-0.0,73.69,10.06,32.0
26825,-0.02,-0.01,9.57,0.0,-0.0,0.0,73.69,10.06,32.0
26827,-0.02,-0.01,9.57,0.0,-0.0,0.0,73.69,10.06,32.0
26829,-0.02,-0.01,9.57,0.0,-0.0,0.0,73.69,10.06,32.0
26830,-0.02,-0.01,9.57,0.0,-0.0,0.0,73.69,10.06,32.0
26832,-0.02,-0.01,9.57,0.0,0.0,0.0,72.87,10.5,35.19
26836,-0.02,0.0,9.62,0.0,0.0,0.0,72.87,10.5,35.19
26837,-0.02,0.0,9.62,0.0,0.0,0.0,72.87,10.5,35.19
26839,-0.02,0.0,9.62,0.0,0.0,0.0,72.87,10.5,35.19
26845,-0.03,-0.03,9.56,0.0,0.0,-0.0,72.87,10.5,35.19
26847,-0.03,-0.03,9.56,0.0,0.0,-0.0,72.87,10.5,35.19
26849,-0.03,-0.03,9.56,0.0,0.0,-0.0,72.87,10.5,35.19
26855,-0.03,0.0,9.52,0.0,0.0,-0.0,72.87,10.5,35.19
26857,-0.03,0.0,9.52,0.0,0.0,-0.0,72.87,10.5,35.19
26859,-0.03,0.0,9.52,0.0,0.0,-0.0,72.87,10.5,35.19
26865,-0.03,0.0,9.61,0.0,0.0,-0.0,72.87,10.5,35.19
26867,-0.03,0.0,9.61,0.0,0.0,-0.0,72.87,10.5,35.19
26868,-0.03,0.0,9.61,0.0,0.0,-0.0,72.87,10.5,35.19
26875,-0.05,0.0,9.59,0.0,0.0,0.0,72.87,10.5,35.19
26876,-0.05,0.0,9.59,0.0,0.0,0.0,72.87,10.5,35.19
26878,-0.05,0.0,9.59,0.0,0.0,0.0,72.87,10.5,35.19
26880,-0.05,0.0,9.59,0.0,0.0,0.0,72.87,10.5,35.19
26882,-0.05,0.0,9.59,0.0,0.0,0.0,72.87,10.5,35.19
26883,-0.05,0.0,9.59,0.0,-0.0,-0.0,73.25,10.06,32.75
26886,-0.05,0.0,9.55,0.0,-0.0,-0.0,73.25,10.06,32.75
26887,-0.05,0.0,9.55,0.0,-0.0,-0.0,73.25,10.06,32.75
26889,-0.05,0.0,9.55,0.0,-0.0,-0.0,73.25,10.06,32.75
26895,-0.04,0.0,9.59,0.0,0.0,-0.0,73.25,10.06,32.75
26897,-0.04,0.0,9.59,0.0,0.0,-0.0,73.25,10.06,32.75
26899,-0.04,0.0,9.59,0.0,0.0,-0.0,73.25,10.06,32.75
26905,-0.03,0.03,9.63,0.0,0.0,-0.0,73.25,10.06,32.75
26907,-0.03,0.03,9.63,0.0,0.0,-0.0,73.25,10.06,32.75
26908,-0.03,0.03,9.63,0.0,0.0,-0.0,73.25,10.06,32.75
26915,-0.03,0.0,9.54,0.0,-0.0,-0.0,73.25,10.06,32.75
26916,-0.03,0.0,9.54,0.0,-0.0,-0.0,73.25,10.06,32.75
26918,-0.03,0.0,9.54,0.0,-0.0,-0.0,73.25,10.06,32.75
26922,-0.03,0.0,9.54,0.0,-0.0,-0.0,73.25,10.06,32.75
26926,-0.05,-0.01,9.57,0.0,-0.0,-0.0,73.25,10.06,32.75
26927,-0.05,-0.01,9.57,0.0,-0.0,-0.0,73.25,10.06,32.75
26929,-0.05,-0.01,9.57,0.0,-0.0,-0.0,73.25,10.06,32.75
26931,-0.05,-0.01,9.57,0.0,-0.0,-0.0,73.25,10.06,32.75
26933,-0.05,-0.01,9.57,0.0,-0.0,-0.0,73.69,8.69,33.06
26936,-0.03,-0.01,9.62,0.0,-0.0,-0.0,73.69,8.69,33.06
26937,-0.03,-0.01,9.62,0.0,-0.0,-0.0,73.69,8.69,33.06
26939,-0.03,-0.01,9.62,0.0,-0.0,-0.0,73.69,8.69,33.06
26945,-0.02,-0.01,9.61,0.0,-0.0,-0.0,73.69,8.69,33.06
26947,-0.02,-0.01,9.61,0.0,-0.0,-0.0,73.69,8.69,33.06
26949,-0.02,-0.01,9.61,0.0,-0.0,-0.0,73.69,8.69,33.06
26955,-0.04,0.0,9.58,0.0,0.0,0.0,73.69,8.69,33.06
26957,-0.04,0.0,9.58,0.0,0.0,0.0,73.69,8.69,33.06
26958,-0.04,0.0,9.58,0.0,0.0,0.0,73.69,8.69,33.06
26964,-0.05,-0.01,9.6,0.0,0.0,-0.0,73.69,8.69,33.06
26966,-0.05,-0.01,9.6,0.0,0.0,-0.0,73.69,8.69,33.06
26968,-0.05,-0.01,9.6,0.0,0.0,-0.0,73.69,8.69,33.06
26969,-0.05,-0.01,9.6,0.0,0.0,-0.0,73.69,8.69,33.06
26975,-0.06,0.0,9.6,0.0,-0.0,0.0,73.69,8.69,33.06
26977,-0.06,0.0,9.6,0.0,-0.0,0.0,73.69,8.69,33.06
26979,-0.06,0.0,9.6,0.0,-0.0,0.0,73.69,8.69,33.06
26981,-0.06,0.0,9.6,0.0,-0.0,0.0,73.69,8.69,33.06
26982,-0.06,0.0,9.6,0.0,-0.0,0.0,73.69,8.69,33.06
26984,-0.05,0.02,9.57,0.0,0.0,-0.0,73.69,9.38,34.0
26986,-0.05,0.02,9.57,0.0,0.0,-0.0,73.69,9.38,34.0
26988,-0.05,0.02,9.57,0.0,0.0,-0.0,73.69,9.38,34.0
26989,-0.05,0.02,9.57,0.0,0.0,-0.0,73.69,9.38,34.0
26995,-0.03,0.04,9.59,-0.01,0.0,0.0,73.69,9.38,34.0
26997,-0.03,0.04,9.59,-0.01,0.0,0.0,73.69,9.38,34.0
26998,-0.03,0.04,9.59,-0.01,0.0,0.0,73.69,9.38,34.0
27005,-0.02,0.03,9.58,-0.0,0.0,0.0,73.69,9.38,34.0
27007,-0.02,0.03,9.58,-0.0,0.0,0.0,73.69,9.38,34.0
27008,-0.02,0.03,9.58,-0.0,0.0,0.0,73.69,9.38,34.0
27015,-0.03,0.06,9.6,-0.0,0.0,0.0,73.69,9.38,34.0
27017,-0.03,0.06,9.6,-0.0,0.0,0.0,73.69,9.38,34.0
27018,-0.03,0.06,9.6,-0.0,0.0,0.0,73.69,9.38,34.0
27024,-0.02,0.05,9.61,-0.0,0.0,-0.0,73.69,9.38,34.0
27026,-0.02,0.05,9.61,-0.0,0.0,-0.0,73.69,9.38,34.0
27028,-0.02,0.05,9.61,-0.0,0.0,-0.0,73.69,9.38,34.0
27029,-0.02,0.05,9.61,-0.0,0.0,-0.0,73.69,9.38,34.0
27031,-0.02,0.05,9.61,-0.0,0.0,-0.0,73.69,9.38,34.0
27034,-0.02,0.02,9.61,-0.0,0.0,0.0,73.69,9.69,34.0
27036,-0.02,0.02,9.61,-0.0,0.0,0.0,73.69,9.69,34.0
27038,-0.02,0.02,9.61,-0.0,0.0,0.0,73.69,9.69,34.0
27039,-0.02,0.02,9.61,-0.0,0.0,0.0,73.69,9.69,34.0
27045,-0.05,0.04,9.58,-0.0,0.0,-0.0,73.69,9.69,34.0
27047,-0.05,0.04,9.58,-0.0,0.0,-0.0,73.69,9.69,34.0
27049,-0.05,0.04,9.58,-0.0,0.0,-0.0,73.69,9.69,34.0
27055,-0.05,0.02,9.59,-0.0,0.0,-0.0,73.69,9.69,34.0
27057,-0.05,0.02,9.59,-0.0,0.0,-0.0,73.69,9.69,34.0
27058,-0.05,0.02,9.59,-0.0,0.0,-0.0,73.69,9.69,34.0
27065,-0.05,0.0,9.58,0.0,0.0,-0.0,73.69,9.69,34.0
27066,-0.05,0.0,9.58,0.0,0.0,-0.0,73.69,9.69,34.0
27068,-0.05,0.0,9.58,0.0,0.0,-0.0,73.69,9.69,34.0
27074,-0.04,0.0,9.59,0.0,-0.0,0.0,73.69,9.69,34.0
27076,-0.04,0.0,9.59,0.0,-0.0,0.0,73.69,9.69,34.0
27078,-0.04,0.0,9.59,0.0,-0.0,0.0,73.69,9.69,34.0
27080,-0.04,0.0,9.59,0.0,-0.0,0.0,73.69,9.69,34.0
27081,-0.04,0.0,9.59,0.0,-0.0,0.0,73.69,9.69,34.0
27083,-0.04,0.0,9.59,-0.0,-0.0,0.0,73.69,9.38,33.56
27086,-0.05,-0.01,9.57,-0.0,-0.0,0.0,73.69,9.38,33.56
27088,-0.05,-0.01,9.57,-0.0,-0.0,0.0,73.69,9.38,33.56
27089,-0.05,-0.01,9.57,-0.0,-0.0,0.0,73.69,9.38,33.56
27095,-0.05,0.0,9.57,-0.0,-0.0,0.0,73.69,9.38,33.56
27097,-0.05,0.0,9.57,-0.0,-0.0,0.0,73.69,9.38,33.56
27098,-0.05,0.0,9.57,-0.0,-0.0,0.0,73.69,9.38,33.56
27105,-0.01,-0.01,9.59,-0.0,-0.0,0.0,73.69,9.38,33.56
27106,-0.01,-0.01,9.59,-0.0,-0.0,0.0,73.69,9.38,33.56
27108,-0.01,-0.01,9.59,-0.0,-0.0,0.0,73.69,9.38,33.56
27115,-0.02,-0.04,9.6,-0.0,-0.0,0.0,73.69,9.38,33.56
27116,-0.02,-0.04,9.6,-0.0,-0.0,0.0,73.69,9.38,33.56
27118,-0.02,-0.04,9.6,-0.0,-0.0,0.0,73.69,9.38,33.56
27123,-0.02,-0.04,9.6,-0.0,-0.0,-0.0,73.69,9.38,33.56
27126,-0.02,-0.03,9.59,-0.0,-0.0,-0.0,73.69,9.38,33.56
27127,-0.02,-0.03,9.59,-0.0,-0.0,-0.0,73.69,9.38,33.56
27129,-0.02,-0.03,9.59,-0.0,-0.0,-0.0,73.69,9.38,33.56
27131,-0.02,-0.03,9.59,-0.0,-0.0,-0.0,73.69,9.38,33.56
27133,-0.02,-0.03,9.59,0.0,0.0,-0.0,73.25,9.69,34.38
27135,-0.03,-0.03,9.57,0.0,0.0,-0.0,73.25,9.69,34.38
27137,-0.03,-0.03,9.57,0.0,0.0,-0.0,73.25,9.69,34.38
27139,-0.03,-0.03,9.57,0.0,0.0,-0.0,73.25,9.69,34.38
27145,-0.06,-0.01,9.57,-0.0,0.0,0.0,73.25,9.69,34.38
27147,-0.06,-0.01,9.57,-0.0,0.0,0.0,73.25,9.69,34.38
27148,-0.06,-0.01,9.57,-0.0,0.0,0.0,73.25,9.69,34.38
27155,-0.05,0.0,9.56,-0.0,-0.0,0.0,73.25,9.69,34.38
27156,-0.05,0.0,9.56,-0.0,-0.0,0.0,73.25,9.69,34.38
27158,-0.05,0.0,9.56,-0.0,-0.0,0.0,73.25,9.69,34.38
27164,-0.06,0.0,9.58,0.0,-0.0,0.0,73.25,9.69,34.38
27166,-0.06,0.0,9.58,0.0,-0.0,0.0,73.25,9.69,34.38
27168,-0.06,0.0,9.58,0.0,-0.0,0.0,73.25,9.69,34.38
27170,-0.06,0.0,9.58,0.0,-0.0,0.0,73.25,9.69,34.38
27175,-0.06,0.05,9.57,-0.0,-0.0,0.0,73.25,9.69,34.38
27177,-0.06,0.05,9.57,-0.0,-0.0,0.0,73.25,9.69,34.38
27179,-0.06,0.05,9.57,-0.0,-0.0,0.0,73.25,9.69,34.38
27180,-0.06,0.05,9.57,-0.0,-0.0,0.0,73.25,9.69,34.38
27182,-0.06,0.05,9.57,-0.0,-0.0,0.0,74.06,9.38,33.06
27185,-0.01,0.04,9.59,-0.0,-0.0,0.0,74.06,9.38,33.06
27187,-0.01,0.04,9.59,-0.0,-0.0,0.0,74.06,9.38,33.06
27189,-0.01,0.04,9.59,-0.0,-0.0,0.0,74.06,9.38,33.06
27195,0.0,0.05,9.58,0.0,0.0,0.0,74.06,9.38,33.06
27196,0.0,0.05,9.58,0.0,0.0,0.0,74.06,9.38,33.06
27198,0.0,0.05,9.58,0.0,0.0,0.0,74.06,9.38,33.06
27205,-0.04,0.03,9.58,-0.0,-0.0,0.0,74.06,9.38,33.06
27206,-0.04,0.03,9.58,-0.0,-0.0,0.0,74.06,9.38,33.06
27208,-0.04,0.03,9.58,-0.0,-0.0,0.0,74.06,9.38,33.06
27214,-0.06,0.03,9.6,-0.0,0.0,0.0,74.06,9.38,33.06
27216,-0.06,0.03,9.6,-0.0,0.0,0.0,74.06,9.38,33.06
27218,-0.06,0.03,9.6,-0.0,0.0,0.0,74.06,9.38,33.06
27222,-0.06,0.03,9.6,-0.0,0.0,0.0,74.06,9.38,33.06
27226,-0.03,0.02,9.6,-0.0,0.0,0.0,74.06,9.38,33.06
27228,-0.03,0.02,9.6,-0.0,0.0,0.0,74.06,9.38,33.06
27229,-0.03,0.02,9.6,-0.0,0.0,0.0,74.06,9.38,33.06
27231,-0.03,0.02,9.6,-0.0,0.0,0.0,74.06,9.38,33.06
27233,-0.03,0.02,9.6,-0.0,-0.0,-0.0,73.25,10.5,33.56
27235,-0.02,0.03,9.58,-0.0,-0.0,-0.0,73.25,10.5,33.56
27237,-0.02,0.03,9.58,-0.0,-0.0,-0.0,73.25,10.5,33.56
27239,-0.02,0.03,9.58,-0.0,-0.0,-0.0,73.25,10.5,33.56
27245,-0.03,0.0,9.59,-0.0,-0.0,0.0,73.25,10.5,33.56
27247,-0.03,0.0,9.59,-0.0,-0.0,0.0,73.25,10.5,33.56
27248,-0.03,0.0,9.59,-0.0,-0.0,0.0,73.25,10.5,33.56
27255,-0.07,0.0,9.59,-0.0,-0.0,0.0,73.25,10.5,33.56
27257,-0.07,0.0,9.59,-0.0,-0.0,0.0,73.25,10.5,33.56
27258,-0.07,0.0,9.59,-0.0,-0.0,0.0,73.25,10.5,33.56
27265,-0.07,0.0,9.56,-0.0,-0.0,0.0,73.25,10.5,33.56
27266,-0.07,0.0,9.56,-0.0,-0.0,0.0,73.25,10.5,33.56
27268,-0.07,0.0,9.56,-0.0,-0.0,0.0,73.25,10.5,33.56
27274,-0.06,-0.01,9.58,-0.0,-0.0,0.0,73.25,10.5,33.56
27276,-0.06,-0.01,9.58,-0.0,-0.0,0.0,73.25,10.5,33.56
27278,-0.06,-0.01,9.58,-0.0,-0.0,0.0,73.25,10.5,33.56
27279,-0.06,-0.01,9.58,-0.0,-0.0,0.0,73.25,10.5,33.56
27281,-0.06,-0.01,9.58,-0.0,-0.0,0.0,73.25,10.5,33.56
27283,-0.06,-0.01,9.58,0.0,-0.0,0.0,74.37,9.38,34.0
27286,0.0,0.0,9.59,0.0,-0.0,0.0,74.37,9.38,34.0
27287,0.0,0.0,9.59,0.0,-0.0,0.0,74.37,9.38,34.0
27289,0.0,0.0,9.59,0.0,-0.0,0.0,74.37,9.38,34.0
27295,-0.01,0.0,9.57,-0.0,0.0,0.0,74.37,9.38,34.0
27297,-0.01,0.0,9.57,-0.0,0.0,0.0,74.37,9.38,34.0
27298,-0.01,0.0,9.57,-0.0,0.0,0.0,74.37,9.38,34.0
27305,-0.03,-0.01,9.58,-0.0,-0.0,0.0,74.37,9.38,34.0
27307,-0.03,-0.01,9.58,-0.0,-0.0,0.0,74.37,9.38,34.0
27308,-0.03,-0.01,9.58,-0.0,-0.0,0.0,74.37,9.38,34.0
27314,-0.05,-0.02,9.56,-0.0,-0.0,0.0,74.37,9.38,34.0
27316,-0.05,-0.02,9.56,-0.0,-0.0,0.0,74.37,9.38,34.0
27318,-0.05,-0.02,9.56,-0.0,-0.0,0.0,74.37,9.38,34.0
27321,-0.05,-0.02,9.56,-0.0,-0.0,0.0,74.37,9.38,34.0
27325,-0.03,-0.01,9.59,-0.0,-0.0,-0.0,74.37,9.38,34.0
27327,-0.03,-0.01,9.59,-0.0,-0.0,-0.0,74.37,9.38,34.0
27329,-0.03,-0.01,9.59,-0.0,-0.0,-0.0,74.37,9.38,34.0
27331,-0.03,-0.01,9.59,-0.0,-0.0,-0.0,74.37,9.38,34.0
27332,-0.03,-0.01,9.59,-0.0,0.0,-0.0,74.37,9.69,32.25
27336,-0.02,0.0,9.56,-0.0,0.0,-0.0,74.37,9.69,32.25
27337,-0.02,0.0,9.56,-0.0,0.0,-0.0,74.37,9.69,32.25
27339,-0.02,0.0,9.56,-0.0,0.0,-0.0,74.37,9.69,32.25
27345,-0.06,0.01,9.6,0.0,-0.0,0.0,74.37,9.69,32.25
27347,-0.06,0.01,9.6,0.0,-0.0,0.0,74.37,9.69,32.25
27348,-0.06,0.01,9.6,0.0,-0.0,0.0,74.37,9.69,32.25
27355,-0.08,0.02,9.59,-0.0,-0.0,0.0,74.37,9.69,32.25
27357,-0.08,0.02,9.59,-0.0,-0.0,0.0,74.37,9.69,32.25
27358,-0.08,0.02,9.59,-0.0,-0.0,0.0,74.37,9.69,32.25
27365,-0.07,0.04,9.56,-0.0,-0.0,0.0,74.37,9.69,32.25
27367,-0.07,0.04,9.56,-0.0,-0.0,0.0,74.37,9.69,32.25
27368,-0.07,0.04,9.56,-0.0,-0.0,0.0,74.37,9.69,32.25
27374,-0.03,0.02,9.58,0.0,-0.0,-0.0,74.37,9.69,32.25
27376,-0.03,0.02,9.58,0.0,-0.0,-0.0,74.37,9.69,32.25
27378,-0.03,0.02,9.58,0.0,-0.0,-0.0,74.37,9.69,32.25
27380,-0.03,0.02,9.58,0.0,-0.0,-0.0,74.37,9.69,32.25
27381,-0.03,0.02,9.58,0.0,-0.0,-0.0,74.37,9.69,32.25
27383,-0.03,0.02,9.58,0.0,0.0,-0.0,73.69,10.5,34.0
27385,-0.03,0.03,9.58,0.0,0.0,-0.0,73.69,10.5,34.0
27387,-0.03,0.03,9.58,0.0,0.0,-0.0,73.69,10.5,34.0
27389,-0.03,0.03,9.58,0.0,0.0,-0.0,73.69,10.5,34.0
27395,-0.02,0.0,9.56,-0.0,0.0,0.0,73.69,10.5,34.0
27397,-0.02,0.0,9.56,-0.0,0.0,0.0,73.69,10.5,34.0
27398,-0.02,0.0,9.56,-0.0,0.0,0.0,73.69,10.5,34.0
27405,-0.06,0.0,9.59,0.0,-0.0,0.0,73.69,10.5,34.0
27407,-0.06,0.0,9.59,0.0,-0.0,0.0,73.69,10.5,34.0
27408,-0.06,0.0,9.59,0.0,-0.0,0.0,73.69,10.5,34.0
27415,-0.05,0.0,9.56,-0.0,0.0,-0.0,73.69,10.5,34.0
27416,-0.05,0.0,9.56,-0.0,0.0,-0.0,73.69,10.5,34.0
27418,-0.05,0.0,9.56,-0.0,0.0,-0.0,73.69,10.5,34.0
27424,-0.05,-0.01,9.58,-0.0,-0.0,0.0,73.69,10.5,34.0
27426,-0.05,-0.01,9.58,-0.0,-0.0,0.0,73.69,10.5,34.0
27428,-0.05,-0.01,9.58,-0.0,-0.0,0.0,73.69,10.5,34.0
27429,-0.05,-0.01,9.58,-0.0,-0.0,0.0,73.69,10.5,34.0
27431,-0.05,-0.01,9.58,-0.0,-0.0,0.0,73.69,10.5,34.0
27434,-0.03,0.0,9.58,-0.0,-0.0,0.0,72.87,10.06,34.38
27436,-0.03,0.0,9.58,-0.0,-0.0,0.0,72.87,10.06,34.38
27437,-0.03,0.0,9.58,-0.0,-0.0,0.0,72.87,10.06,34.38
27439,-0.03,0.0,9.58,-0.0,-0.0,0.0,72.87,10.06,34.38
27445,-0.02,-0.01,9.57,-0.0,0.0,0.0,72.87,10.06,34.38
27446,-0.02,-0.01,9.57,-0.0,0.0,0.0,72.87,10.06,34.38
27448,-0.02,-0.01,9.57,-0.0,0.0,0.0,72.87,10.06,34.38
27455,-0.04,-0.02,9.56,-0.0,0.0,0.0,72.87,10.06,34.38
27456,-0.04,-0.02,9.56,-0.0,0.0,0.0,72.87,10.06,34.38
27458,-0.04,-0.02,9.56,-0.0,0.0,0.0,72.87,10.06,34.38
27464,-0.02,0.0,9.59,-0.0,-0.0,0.0,72.87,10.06,34.38
27466,-0.02,0.0,9.59,-0.0,-0.0,0.0,72.87,10.06,34.38
27468,-0.02,0.0,9.59,-0.0,-0.0,0.0,72.87,10.06,34.38
27472,-0.02,0.0,9.59,-0.0,0.0,0.0,72.87,10.06,34.38
27476,-0.03,0.0,9.55,-0.0,0.0,0.0,72.87,10.06,34.38
27477,-0.03,0.0,9.55,-0.0,0.0,0.0,72.87,10.06,34.38
27479,-0.03,0.0,9.55,-0.0,0.0,0.0,72.87,10.06,34.38
27481,-0.03,0.0,9.55,-0.0,0.0,0.0,72.87,10.06,34.38
27482,-0.03,0.0,9.55,-0.0,0.0,0.0,72.87,10.88,32.75
27485,-0.02,0.0,9.59,-0.0,0.0,0.0,72.87,10.88,32.75
27487,-0.02,0.0,9.59,-0.0,0.0,0.0,72.87,10.88,32.75
27488,-0.02,0.0,9.59,-0.0,0.0,0.0,72.87,10.88,32.75
27495,-0.03,0.0,9.59,0.0,-0.0,-0.0,72.87,10.88,32.75
27496,-0.03,0.0,9.59,0.0,-0.0,-0.0,72.87,10.88,32.75
27498,-0.03,0.0,9.59,0.0,-0.0,-0.0,72.87,10.88,32.75
27505,-0.05,0.02,9.54,-0.0,-0.0,-0.0,72.87,10.88,32.75
27506,-0.05,0.02,9.54,-0.0,-0.0,-0.0,72.87,10.88,32.75
27508,-0.05,0.02,9.54,-0.0,-0.0,-0.0,72.87,10.88,32.75
27515,-0.04,0.03,9.58,0.0,0.0,-0.0,72.87,10.88,32.75
27516,-0.04,0.03,9.58,0.0,0.0,-0.0,72.87,10.88,32.75
27518,-0.04,0.03,9.58,0.0,0.0,-0.0,72.87,10.88,32.75
27524,-0.04,0.03,9.61,0.0,-0.0,0.0,72.87,10.88,32.75
27526,-0.04,0.03,9.61,0.0,-0.0,0.0,72.87,10.88,32.75
27528,-0.04,0.03,9.61,0.0,-0.0,0.0,72.87,10.88,32.75
27529,-0.04,0.03,9.61,0.0,-0.0,0.0,72.87,10.88,32.75
27531,-0.04,0.03,9.61,0.0,-0.0,0.0,72.87,10.88,32.75
27539,0.0,0.0,9.57,0.0,0.0,-0.0,73.69,9.38,35.19
27545,-0.04,0.0,9.58,0.0,0.0,0.0,73.69,9.38,35.19
27547,-0.04,0.0,9.58,0.0,0.0,0.0,73.69,9.38,35.19
27549,-0.04,0.0,9.58,0.0,0.0,0.0,73.69,9.38,35.19
27555,-0.02,-0.02,9.6,0.0,0.0,0.0,73.69,9.38,35.19
27556,-0.02,-0.02,9.6,0.0,0.0,0.0,73.69,9.38,35.19
27558,-0.02,-0.02,9.6,0.0,0.0,0.0,73.69,9.38,35.19
27565,-0.05,-0.02,9.62,0.0,0.0,-0.0,73.69,9.38,35.19
27567,-0.05,-0.02,9.62,0.0,0.0,-0.0,73.69,9.38,35.19
27568,-0.05,-0.02,9.62,0.0,0.0,-0.0,73.69,9.38,35.19
27574,-0.08,0.0,9.58,0.0,-0.0,-0.0,73.69,9.38,35.19
27576,-0.08,0.0,9.58,0.0,-0.0,-0.0,73.69,9.38,35.19
27578,-0.08,0.0,9.58,0.0,-0.0,-0.0,73.69,9.38,35.19
27580,-0.08,0.0,9.58,0.0,-0.0,-0.0,73.69,9.38,35.19
27581,-0.08,0.0,9.58,0.0,-0.0,-0.0,73.69,9.38,35.19
27583,-0.08,0.0,9.58,0.0,0.0,0.0,73.69,9.38,33.56
27585,-0.06,-0.01,9.6,0.0,0.0,0.0,73.69,9.38,33.56
27587,-0.06,-0.01,9.6,0.0,0.0,0.0,73.69,9.38,33.56
27589,-0.06,-0.01,9.6,0.0,0.0,0.0,73.69,9.38,33.56
27595,-0.04,0.0,9.61,0.0,-0.0,-0.0,73.69,9.38,33.56
27597,-0.04,0.0,9.61,0.0,-0.0,-0.0,73.69,9.38,33.56
27598,-0.04,0.0,9.61,0.0,-0.0,-0.0,73.69,9.38,33.56
27605,-0.02,0.0,9.59,-0.0,0.0,-0.0,73.69,9.38,33.56
27606,-0.02,0.0,9.59,-0.0,0.0,-0.0,73.69,9.38,33.56
27608,-0.02,0.0,9.59,-0.0,0.0,-0.0,73.69,9.38,33.56
27614,0.0,0.0,9.6,-0.0,0.0,0.0,73.69,9.38,33.56
27616,0.0,0.0,9.6,-0.0,0.0,0.0,73.69,9.38,33.56
27617,0.0,0.0,9.6,-0.0,0.0,0.0,73.69,9.38,33.56
27619,0.0,0.0,9.6,-0.0,0.0,0.0,73.69,9.38,33.56
27625,0.0,0.0,9.63,0.0,0.0,-0.0,73.69,9.38,33.56
27627,0.0,0.0,9.63,0.0,0.0,-0.0,73.69,9.38,33.56
27628,0.0,0.0,9.63,0.0,0.0,-0.0,73.69,9.38,33.56
27630,0.0,0.0,9.63,0.0,0.0,-0.0,73.69,9.38,33.56
27632,0.0,0.0,9.63,0.0,-0.0,-0.0,73.69,9.38,34.0
27635,0.0,-0.03,9.58,0.0,-0.0,-0.0,73.69,9.38,34.0
27637,0.0,-0.03,9.58,0.0,-0.0,-0.0,73.69,9.38,34.0
27639,0.0,-0.03,9.58,0.0,-0.0,-0.0,73.69,9.38,34.0
27645,-0.01,-0.02,9.56,0.0,0.0,0.0,73.69,9.38,34.0
27646,-0.01,-0.02,9.56,0.0,0.0,0.0,73.69,9.38,34.0
27648,-0.01,-0.02,9.56,0.0,0.0,0.0,73.69,9.38,34.0
27654,-0.07,-0.01,9.58,0.0,-0.0,-0.0,73.69,9.38,34.0
27656,-0.07,-0.01,9.58,0.0,-0.0,-0.0,73.69,9.38,34.0
27658,-0.07,-0.01,9.58,0.0,-0.0,-0.0,73.69,9.38,34.0
27664,-0.07,0.0,9.61,0.0,-0.0,0.0,73.69,9.38,34.0
27666,-0.07,0.0,9.61,0.0,-0.0,0.0,73.69,9.38,34.0
27668,-0.07,0.0,9.61,0.0,-0.0,0.0,73.69,9.38,34.0
27672,-0.07,0.0,9.61,0.0,0.0,-0.0,73.69,9.38,34.0
27676,-0.08,0.03,9.57,0.0,0.0,-0.0,73.69,9.38,34.0
27677,-0.08,0.03,9.57,0.0,0.0,-0.0,73.69,9.38,34.0
27679,-0.08,0.03,9.57,0.0,0.0,-0.0,73.69,9.38,34.0
27681,-0.08,0.03,9.57,0.0,0.0,-0.0,73.69,9.38,34.0
27682,-0.08,0.03,9.57,-0.0,0.0,0.0,74.37,9.69,34.0
27685,-0.05,0.03,9.59,-0.0,0.0,0.0,74.37,9.69,34.0
27687,-0.05,0.03,9.59,-0.0,0.0,0.0,74.37,9.69,34.0
27689,-0.05,0.03,9.59,-0.0,0.0,0.0,74.37,9.69,34.0
27695,0.0,0.03,9.6,-0.0,-0.0,0.0,74.37,9.69,34.0
27696,0.0,0.03,9.6,-0.0,-0.0,0.0,74.37,9.69,34.0
27698,0.0,0.03,9.6,-0.0,-0.0,0.0,74.37,9.69,34.0
27705,0.01,0.02,9.57,-0.0,0.0,0.0,74.37,9.69,34.0
27707,0.01,0.02,9.57,-0.0,0.0,0.0,74.37,9.69,34.0
27708,0.01,0.02,9.57,-0.0,0.0,0.0,74.37,9.69,34.0
27715,0.0,0.0,9.59,0.0,0.0,-0.0,74.37,9.69,34.0
27716,0.0,0.0,9.59,0.0,0.0,-0.0,74.37,9.69,34.0
27718,0.0,0.0,9.59,0.0,0.0,-0.0,74.37,9.69,34.0
27724,-0.02,0.0,9.58,0.0,-0.0,-0.0,74.37,9.69,34.0
27726,-0.02,0.0,9.58,0.0,-0.0,-0.0,74.37,9.69,34.0
27728,-0.02,0.0,9.58,0.0,-0.0,-0.0,74.37,9.69,34.0
27729,-0.02,0.0,9.58,0.0,-0.0,-0.0,74.37,9.69,34.0
27731,-0.02,0.0,9.58,0.0,-0.0,-0.0,74.37,9.69,34.0
27735,-0.06,0.0,9.57,0.0,0.0,-0.0,73.69,10.5,34.0
27736,-0.06,0.0,9.57,0.0,0.0,-0.0,73.69,10.5,34.0
27738,-0.06,0.0,9.57,0.0,0.0,-0.0,73.69,10.5,34.0
27745,-0.07,0.0,9.58,-0.0,0.0,-0.0,73.69,10.5,34.0
27746,-0.07,0.0,9.58,-0.0,0.0,-0.0,73.69,10.5,34.0
27748,-0.07,0.0,9.58,-0.0,0.0,-0.0,73.69,10.5,34.0
27754,-0.07,0.01,9.59,0.0,-0.0,0.0,73.69,10.5,34.0
27756,-0.07,0.01,9.59,0.0,-0.0,0.0,73.69,10.5,34.0
27758,-0.07,0.01,9.59,0.0,-0.0,0.0,73.69,10.5,34.0
27762,-0.07,0.01,9.59,-0.0,-0.0,0.0,73.69,10.5,34.0
27765,-0.03,0.02,9.57,-0.0,-0.0,0.0,73.69,10.5,34.0
27767,-0.03,0.02,9.57,-0.0,-0.0,0.0,73.69,10.5,34.0
27769,-0.03,0.02,9.57,-0.0,-0.0,0.0,73.69,10.5,34.0
27775,-0.02,0.02,9.57,-0.0,0.0,0.0,73.69,10.5,34.0
27777,-0.02,0.02,9.57,-0.0,0.0,0.0,73.69,10.5,34.0
27778,-0.02,0.02,9.57,-0.0,0.0,0.0,73.69,10.5,34.0
27780,-0.02,0.02,9.57,-0.0,0.0,0.0,73.69,10.5,34.0
27782,-0.02,0.02,9.57,-0.0,0.0,0.0,73.69,9.38,34.38
27785,0.0,0.01,9.57,0.0,0.0,0.0,73.69,9.38,34.38
27787,0.0,0.01,9.57,0.0,0.0,0.0,73.69,9.38,34.38
27788,0.0,0.01,9.57,0.0,0.0,0.0,73.69,9.38,34.38
27795,-0.01,0.03,9.6,0.0,0.0,0.0,73.69,9.38,34.38
27796,-0.01,0.03,9.6,0.0,0.0,0.0,73.69,9.38,34.38
27798,-0.01,0.03,9.6,0.0,0.0,0.0,73.69,9.38,34.38
27804,-0.04,0.0,9.59,-0.0,-0.0,-0.0,73.69,9.38,34.38
27806,-0.04,0.0,9.59,-0.0,-0.0,-0.0,73.69,9.38,34.38
27808,-0.04,0.0,9.59,-0.0,-0.0,-0.0,73.69,9.38,34.38
27812,-0.04,0.0,9.59,-0.0,-0.0,-0.0,73.69,9.38,34.38
27815,-0.03,0.0,9.57,-0.0,-0.0,-0.0,73.69,9.38,34.38
27817,-0.03,0.0,9.57,-0.0,-0.0,-0.0,73.69,9.38,34.38
27819,-0.03,0.0,9.57,-0.0,-0.0,-0.0,73.69,9.38,34.38
27825,-0.03,-0.02,9.59,0.0,-0.0,-0.0,73.69,9.38,34.38
27827,-0.03,-0.02,9.59,0.0,-0.0,-0.0,73.69,9.38,34.38
27828,-0.03,-0.02,9.59,0.0,-0.0,-0.0,73.69,9.38,34.38
27830,-0.03,-0.02,9.59,0.0,-0.0,-0.0,73.69,9.38,34.38
27832,-0.03,-0.02,9.59,0.0,0.0,-0.0,74.06,10.5,32.25
27835,-0.07,0.0,9.6,0.0,0.0,-0.0,74.06,10.5,32.25
27837,-0.07,0.0,9.6,0.0,0.0,-0.0,74.06,10.5,32.25
27839,-0.07,0.0,9.6,0.0,0.0,-0.0,74.06,10.5,32.25
27845,-0.04,0.0,9.57,0.0,0.0,0.0,74.06,10.5,32.25
27846,-0.04,0.0,9.57,0.0,0.0,0.0,74.06,10.5,32.25
27848,-0.04,0.0,9.57,0.0,0.0,0.0,74.06,10.5,32.25
27855,-0.04,0.01,9.57,0.0,-0.0,0.0,74.06,10.5,32.25
27856,-0.04,0.01,9.57,0.0,-0.0,0.0,74.06,10.5,32.25
27858,-0.04,0.01,9.57,0.0,-0.0,0.0,74.06,10.5,32.25
27864,-0.05,0.01,9.59,0.0,0.0,0.0,74.06,10.5,32.25
27866,-0.05,0.01,9.59,0.0,0.0,0.0,74.06,10.5,32.25
27868,-0.05,0.01,9.59,0.0,0.0,0.0,74.06,10.5,32.25
27872,-0.05,0.01,9.59,-0.0,0.0,0.0,74.06,10.5,32.25
27875,-0.01,0.01,9.59,-0.0,0.0,0.0,74.06,10.5,32.25
27877,-0.01,0.01,9.59,-0.0,0.0,0.0,74.06,10.5,32.25
27879,-0.01,0.01,9.59,-0.0,0.0,0.0,74.06,10.5,32.25
27880,-0.01,0.01,9.59,-0.0,0.0,0.0,74.06,10.5,32.25
27882,-0.01,0.01,9.59,0.0,0.0,-0.0,73.25,9.38,34.38
27885,-0.03,-0.02,9.58,0.0,0.0,-0.0,73.25,9.38,34.38
27887,-0.03,-0.02,9.58,0.0,0.0,-0.0,73.25,9.38,34.38
27889,-0.03,-0.02,9.58,0.0,0.0,-0.0,73.25,9.38,34.38
27895,-0.01,-0.01,9.59,0.0,0.0,0.0,73.25,9.38,34.38
27896,-0.01,-0.01,9.59,0.0,0.0,0.0,73.25,9.38,34.38
27898,-0.01,-0.01,9.59,0.0,0.0,0.0,73.25,9.38,34.38
27905,-0.02,-0.01,9.57,-0.0,-0.0,0.0,73.25,9.38,34.38
27906,-0.02,-0.01,9.57,-0.0,-0.0,0.0,73.25,9.38,34.38
27908,-0.02,-0.01,9.57,-0.0,-0.0,0.0,73.25,9.38,34.38
27914,-0.04,0.01,9.59,-0.0,0.0,-0.0,73.25,9.38,34.38
27916,-0.04,0.01,9.59,-0.0,0.0,-0.0,73.25,9.38,34.38
27918,-0.04,0.01,9.59,-0.0,0.0,-0.0,73.25,9.38,34.38
27922,-0.04,0.01,9.59,-0.0,-0.0,0.0,73.25,9.38,34.38
27925,-0.05,0.02,9.58,-0.0,-0.0,0.0,73.25,9.38,34.38
27927,-0.05,0.02,9.58,-0.0,-0.0,0.0,73.25,9.38,34.38
27929,-0.05,0.02,9.58,-0.0,-0.0,0.0,73.25,9.38,34.38
27930,-0.05,0.02,9.58,-0.0,-0.0,0.0,73.25,9.38,34.38
27932,-0.05,0.02,9.58,0.0,0.0,0.0,73.69,9.69,34.75
27935,-0.06,0.02,9.6,0.0,0.0,0.0,73.69,9.69,34.75
27937,-0.06,0.02,9.6,0.0,0.0,0.0,73.69,9.69,34.75
27939,-0.06,0.02,9.6,0.0,0.0,0.0,73.69,9.69,34.75
27945,-0.03,0.03,9.57,0.0,0.0,0.0,73.69,9.69,34.75
27946,-0.03,0.03,9.57,0.0,0.0,0.0,73.69,9.69,34.75
27948,-0.03,0.03,9.57,0.0,0.0,0.0,73.69,9.69,34.75
27954,-0.01,0.02,9.59,0.0,-0.0,0.0,73.69,9.69,34.75
27956,-0.01,0.02,9.59,0.0,-0.0,0.0,73.69,9.69,34.75
27958,-0.01,0.02,9.59,0.0,-0.0,0.0,73.69,9.69,34.75
27964,-0.02,0.0,9.58,0.0,-0.0,-0.0,73.69,9.69,34.75
27966,-0.02,0.0,9.58,0.0,-0.0,-0.0,73.69,9.69,34.75
27967,-0.02,0.0,9.58,0.0,-0.0,-0.0,73.69,9.69,34.75
27969,-0.02,0.0,9.58,0.0,-0.0,-0.0,73.69,9.69,34.75
27975,-0.04,0.0,9.61,0.0,-0.0,0.0,73.69,9.69,34.75
27976,-0.04,0.0,9.61,0.0,-0.0,0.0,73.69,9.69,34.75
27978,-0.04,0.0,9.61,0.0,-0.0,0.0,73.69,9.69,34.75
27980,-0.04,0.0,9.61,0.0,-0.0,0.0,73.69,9.69,34.75
27982,-0.04,0.0,9.61,0.0,-0.0,0.0,73.69,9.69,34.75
27983,-0.04,-0.02,9.56,-0.0,0.0,-0.0,73.69,10.5,34.0
27985,-0.04,-0.02,9.56,-0.0,0.0,-0.0,73.69,10.5,34.0
27987,-0.04,-0.02,9.56,-0.0,0.0,-0.0,73.69,10.5,34.0
27989,-0.04,-0.02,9.56,-0.0,0.0,-0.0,73.69,10.5,34.0
27994,-0.05,0.0,9.61,0.0,0.0,0.0,73.69,10.5,34.0
27996,-0.05,0.0,9.61,0.0,0.0,0.0,73.69,10.5,34.0
27998,-0.05,0.0,9.61,0.0,0.0,0.0,73.69,10.5,34.0
28005,-0.06,-0.01,9.57,0.0,-0.0,-0.0,73.69,10.5,34.0
28006,-0.06,-0.01,9.57,0.0,-0.0,-0.0,73.69,10.5,34.0
28008,-0.06,-0.01,9.57,0.0,-0.0,-0.0,73.69,10.5,34.0
28014,-0.05,-0.02,9.58,-0.0,-0.0,-0.0,73.69,10.5,34.0
28016,-0.05,-0.02,9.58,-0.0,-0.0,-0.0,73.69,10.5,34.0
28018,-0.05,-0.02,9.58,-0.0,-0.0,-0.0,73.69,10.5,34.0
28020,-0.05,-0.02,9.58,-0.0,-0.0,-0.0,73.69,10.5,34.0
28025,-0.04,0.01,9.56,0.0,-0.0,-0.0,73.69,10.5,34.0
28027,-0.04,0.01,9.56,0.0,-0.0,-0.0,73.69,10.5,34.0
28028,-0.04,0.01,9.56,0.0,-0.0,-0.0,73.69,10.5,34.0
28030,-0.04,0.01,9.56,0.0,-0.0,-0.0,73.69,10.5,34.0
28032,-0.04,0.01,9.56,0.0,-0.0,-0.0,73.69,9.69,34.38
28035,-0.04,0.01,9.6,0.0,-0.0,-0.0,73.69,9.69,34.38
28037,-0.04,0.01,9.6,0.0,-0.0,-0.0,73.69,9.69,34.38
28038,-0.04,0.01,9.6,0.0,-0.0,-0.0,73.69,9.69,34.38
28044,0.0,0.02,9.59,0.0,-0.0,0.0,73.69,9.69,34.38
28046,0.0,0.02,9.59,0.0,-0.0,0.0,73.69,9.69,34.38
28048,0.0,0.02,9.59,0.0,-0.0,0.0,73.69,9.69,34.38
28054,-0.02,0.04,9.59,0.0,-0.0,0.0,73.69,9.69,34.38
28056,-0.02,0.04,9.59,0.0,-0.0,0.0,73.69,9.69,34.38
28058,-0.02,0.04,9.59,0.0,-0.0,0.0,73.69,9.69,34.38
28064,-0.03,0.0,9.58,-0.0,0.0,-0.0,73.69,9.69,34.38
28066,-0.03,0.0,9.58,-0.0,0.0,-0.0,73.69,9.69,34.38
28067,-0.03,0.0,9.58,-0.0,0.0,-0.0,73.69,9.69,34.38
28069,-0.03,0.0,9.58,-0.0,0.0,-0.0,73.69,9.69,34.38
28075,-0.05,0.02,9.59,-0.0,0.0,-0.0,73.69,9.69,34.38
28076,-0.05,0.02,9.59,-0.0,0.0,-0.0,73.69,9.69,34.38
28078,-0.05,0.02,9.59,-0.0,0.0,-0.0,73.69,9.69,34.38
28080,-0.05,0.02,9.59,-0.0,0.0,-0.0,73.69,9.69,34.38
28082,-0.05,0.02,9.59,-0.0,0.0,-0.0,73.25,9.38,33.56
28085,-0.04,-0.01,9.58,0.0,0.0,-0.0,73.25,9.38,33.56
28086,-0.04,-0.01,9.58,0.0,0.0,-0.0,73.25,9.38,33.56
28088,-0.04,-0.01,9.58,0.0,0.0,-0.0,73.25,9.38,33.56
28095,-0.06,0.01,9.58,0.0,0.0,0.0,73.25,9.38,33.56
28096,-0.06,0.01,9.58,0.0,0.0,0.0,73.25,9.38,33.56
28098,-0.06,0.01,9.58,0.0,0.0,0.0,73.25,9.38,33.56
28104,-0.04,-0.01,9.58,0.0,0.0,0.0,73.25,9.38,33.56
28106,-0.04,-0.01,9.58,0.0,0.0,0.0,73.25,9.38,33.56
28108,-0.04,-0.01,9.58,0.0,0.0,0.0,73.25,9.38,33.56
28112,-0.04,-0.01,9.58,-0.0,0.0,-0.0,73.25,9.38,33.56
28115,-0.02,0.0,9.57,-0.0,0.0,-0.0,73.25,9.38,33.56
28117,-0.02,0.0,9.57,-0.0,0.0,-0.0,73.25,9.38,33.56
28118,-0.02,0.0,9.57,-0.0,0.0,-0.0,73.25,9.38,33.56
28125,-0.02,0.0,9.56,0.0,0.0,0.0,73.25,9.38,33.56
28126,-0.02,0.0,9.56,0.0,0.0,0.0,73.25,9.38,33.56
28128,-0.02,0.0,9.56,0.0,0.0,0.0,73.25,9.38,33.56
28130,-0.02,0.0,9.56,0.0,0.0,0.0,73.25,9.38,33.56
28132,-0.02,0.0,9.56,0.0,-0.0,-0.0,73.69,10.06,34.38
28135,-0.03,-0.02,9.6,0.0,-0.0,-0.0,73.69,10.06,34.38
28137,-0.03,-0.02,9.6,0.0,-0.0,-0.0,73.69,10.06,34.38
28138,-0.03,-0.02,9.6,0.0,-0.0,-0.0,73.69,10.06,34.38
28144,-0.02,-0.02,9.58,0.0,0.0,-0.0,73.69,10.06,34.38
28146,-0.02,-0.02,9.58,0.0,0.0,-0.0,73.69,10.06,34.38
28148,-0.02,-0.02,9.58,0.0,0.0,-0.0,73.69,10.06,34.38
28154,-0.03,0.0,9.58,0.0,-0.0,-0.0,73.69,10.06,34.38
28156,-0.03,0.0,9.58,0.0,-0.0,-0.0,73.69,10.06,34.38
28158,-0.03,0.0,9.58,0.0,-0.0,-0.0,73.69,10.06,34.38
28164,-0.04,-0.02,9.58,-0.0,-0.0,0.0,73.69,10.06,34.38
28166,-0.04,-0.02,9.58,-0.0,-0.0,0.0,73.69,10.06,34.38
28168,-0.04,-0.02,9.58,-0.0,-0.0,0.0,73.69,10.06,34.38
28174,-0.06,0.0,9.58,-0.0,-0.0,-0.0,73.69,10.06,34.38
28176,-0.06,0.0,9.58,-0.0,-0.0,-0.0,73.69,10.06,34.38
28177,-0.06,0.0,9.58,-0.0,-0.0,-0.0,73.69,10.06,34.38
28179,-0.06,0.0,9.58,-0.0,-0.0,-0.0,73.69,10.06,34.38
28181,-0.06,0.0,9.58,-0.0,-0.0,-0.0,73.69,10.06,34.38
28183,-0.06,0.0,9.58,0.0,0.0,-0.0,73.69,9.69,33.06
28185,-0.06,0.01,9.59,0.0,0.0,-0.0,73.69,9.69,33.06
28187,-0.06,0.01,9.59,0.0,0.0,-0.0,73.69,9.69,33.06
28188,-0.06,0.01,9.59,0.0,0.0,-0.0,73.69,9.69,33.06
28194,-0.07,0.01,9.6,0.0,0.0,0.0,73.69,9.69,33.06
28196,-0.07,0.01,9.6,0.0,0.0,0.0,73.69,9.69,33.06
28198,-0.07,0.01,9.6,0.0,0.0,0.0,73.69,9.69,33.06
28204,0.0,0.04,9.59,-0.0,0.0,0.0,73.69,9.69,33.06
28206,0.0,0.04,9.59,-0.0,0.0,0.0,73.69,9.69,33.06
28208,0.0,0.04,9.59,-0.0,0.0,0.0,73.69,9.69,33.06
28214,-0.01,0.02,9.58,-0.0,0.0,-0.0,73.69,9.69,33.06
28216,-0.01,0.02,9.58,-0.0,0.0,-0.0,73.69,9.69,33.06
28218,-0.01,0.02,9.58,-0.0,0.0,-0.0,73.69,9.69,33.06
28222,-0.01,0.02,9.58,0.0,0.0,0.0,73.69,9.69,33.06
28225,-0.01,0.0,9.57,0.0,0.0,0.0,73.69,9.69,33.06
28227,-0.01,0.0,9.57,0.0,0.0,0.0,73.69,9.69,33.06
28229,-0.01,0.0,9.57,0.0,0.0,0.0,73.69,9.69,33.06
28230,-0.01,0.0,9.57,0.0,0.0,0.0,73.69,9.69,33.06
28233,-0.01,0.0,9.57,-0.0,0.0,-0.0,73.25,9.38,34.38
28235,-0.05,-0.03,9.57,-0.0,0.0,-0.0,73.25,9.38,34.38
28237,-0.05,-0.03,9.57,-0.0,0.0,-0.0,73.25,9.38,34.38
28238,-0.05,-0.03,9.57,-0.0,0.0,-0.0,73.25,9.38,34.38
28244,-0.02,-0.02,9.58,0.0,0.0,0.0,73.25,9.38,34.38
28246,-0.02,-0.02,9.58,0.0,0.0,0.0,73.25,9.38,34.38
28248,-0.02,-0.02,9.58,0.0,0.0,0.0,73.25,9.38,34.38
28254,-0.05,0.0,9.57,-0.0,0.0,-0.0,73.25,9.38,34.38
28256,-0.05,0.0,9.57,-0.0,0.0,-0.0,73.25,9.38,34.38
28258,-0.05,0.0,9.57,-0.0,0.0,-0.0,73.25,9.38,34.38
28264,-0.05,-0.02,9.59,-0.0,0.0,0.0,73.25,9.38,34.38
28266,-0.05,-0.02,9.59,-0.0,0.0,0.0,73.25,9.38,34.38
28267,-0.05,-0.02,9.59,-0.0,0.0,0.0,73.25,9.38,34.38
28272,-0.05,-0.02,9.59,0.0,0.0,-0.0,73.25,9.38,34.38
28275,-0.06,-0.01,9.57,0.0,0.0,-0.0,73.25,9.38,34.38
28277,-0.06,-0.01,9.57,0.0,0.0,-0.0,73.25,9.38,34.38
28279,-0.06,-0.01,9.57,0.0,0.0,-0.0,73.25,9.38,34.38
28280,-0.06,-0.01,9.57,0.0,0.0,-0.0,73.25,9.38,34.38
28282,-0.06,-0.01,9.57,0.0,-0.0,-0.0,73.69,10.06,32.75
28285,-0.02,0.0,9.59,0.0,-0.0,-0.0,73.69,10.06,32.75
28287,-0.02,0.0,9.59,0.0,-0.0,-0.0,73.69,10.06,32.75
28288,-0.02,0.0,9.59,0.0,-0.0,-0.0,73.69,10.06,32.75
28295,-0.02,-0.01,9.6,0.0,0.0,0.0,73.69,10.06,32.75
28296,-0.02,-0.01,9.6,0.0,0.0,0.0,73.69,10.06,32.75
28298,-0.02,-0.01,9.6,0.0,0.0,0.0,73.69,10.06,32.75
28304,-0.02,0.0,9.59,-0.0,0.0,-0.0,73.69,10.06,32.75
28306,-0.02,0.0,9.59,-0.0,0.0,-0.0,73.69,10.06,32.75
28308,-0.02,0.0,9.59,-0.0,0.0,-0.0,73.69,10.06,32.75
28314,-0.03,0.0,9.56,0.0,0.0,-0.0,73.69,10.06,32.75
28316,-0.03,0.0,9.56,0.0,0.0,-0.0,73.69,10.06,32.75
28317,-0.03,0.0,9.56,0.0,0.0,-0.0,73.69,10.06,32.75
28322,-0.03,0.0,9.56,0.0,-0.0,-0.0,73.69,10.06,32.75
28325,-0.04,0.0,9.6,0.0,-0.0,-0.0,73.69,10.06,32.75
28327,-0.04,0.0,9.6,0.0,-0.0,-0.0,73.69,10.06,32.75
28329,-0.04,0.0,9.6,0.0,-0.0,-0.0,73.69,10.06,32.75
28330,-0.04,0.0,9.6,0.0,-0.0,-0.0,73.69,10.06,32.75
28332,-0.04,0.0,9.6,0.0,0.0,-0.0,72.87,9.69,33.5
28335,-0.05,0.02,9.6,0.0,0.0,-0.0,72.87,9.69,33.5
28337,-0.05,0.02,9.6,0.0,0.0,-0.0,72.87,9.69,33.5
28338,-0.05,0.02,9.6,0.0,0.0,-0.0,72.87,9.69,33.5
28344,-0.06,0.0,9.58,-0.0,0.0,-0.0,72.87,9.69,33.5
28346,-0.06,0.0,9.58,-0.0,0.0,-0.0,72.87,9.69,33.5
28348,-0.06,0.0,9.58,-0.0,0.0,-0.0,72.87,9.69,33.5
28354,-0.05,0.03,9.57,-0.0,0.0,0.0,72.87,9.69,33.5
28356,-0.05,0.03,9.57,-0.0,0.0,0.0,72.87,9.69,33.5
28358,-0.05,0.03,9.57,-0.0,0.0,0.0,72.87,9.69,33.5
28364,-0.04,0.03,9.57,-0.0,0.0,0.0,72.87,9.69,33.5
28366,-0.04,0.03,9.57,-0.0,0.0,0.0,72.87,9.69,33.5
28368,-0.04,0.03,9.57,-0.0,0.0,0.0,72.87,9.69,33.5
28372,-0.04,0.03,9.57,-0.0,0.0,-0.0,72.87,9.69,33.5
28375,-0.03,0.01,9.6,-0.0,0.0,-0.0,72.87,9.69,33.5
28377,-0.03,0.01,9.6,-0.0,0.0,-0.0,72.87,9.69,33.5
28379,-0.03,0.01,9.6,-0.0,0.0,-0.0,72.87,9.69,33.5
28380,-0.03,0.01,9.6,-0.0,0.0,-0.0,72.87,9.69,33.5
28382,-0.03,0.01,9.6,-0.0,0.0,-0.0,73.69,9.69,33.56
28385,-0.05,0.0,9.59,-0.0,0.0,-0.0,73.69,9.69,33.56
28387,-0.05,0.0,9.59,-0.0,0.0,-0.0,73.69,9.69,33.56
28388,-0.05,0.0,9.59,-0.0,0.0,-0.0,73.69,9.69,33.56
28394,-0.03,-0.02,9.59,-0.0,0.0,-0.0,73.69,9.69,33.56
28396,-0.03,-0.02,9.59,-0.0,0.0,-0.0,73.69,9.69,33.56
28398,-0.03,-0.02,9.59,-0.0,0.0,-0.0,73.69,9.69,33.56
28404,-0.01,-0.02,9.59,-0.0,0.0,-0.0,73.69,9.69,33.56
28406,-0.01,-0.02,9.59,-0.0,0.0,-0.0,73.69,9.69,33.56
28408,-0.01,-0.02,9.59,-0.0,0.0,-0.0,73.69,9.69,33.56
28414,-0.04,0.0,9.56,0.0,0.0,-0.0,73.69,9.69,33.56
28416,-0.04,0.0,9.56,0.0,0.0,-0.0,73.69,9.69,33.56
28417,-0.04,0.0,9.56,0.0,0.0,-0.0,73.69,9.69,33.56
28420,-0.04,0.0,9.56,0.0,0.0,-0.0,73.69,9.69,33.56
28425,-0.04,-0.02,9.58,-0.0,0.0,0.0,73.69,9.69,33.56
28426,-0.04,-0.02,9.58,-0.0,0.0,0.0,73.69,9.69,33.56
28428,-0.04,-0.02,9.58,-0.0,0.0,0.0,73.69,9.69,33.56
28430,-0.04,-0.02,9.58,-0.0,0.0,0.0,73.69,9.69,33.56
28432,-0.04,-0.02,9.58,-0.0,-0.0,0.0,73.69,9.69,33.56
28435,-0.05,-0.04,9.58,-0.0,-0.0,0.0,73.69,9.69,33.56
28437,-0.05,-0.04,9.58,-0.0,-0.0,0.0,73.69,9.69,33.56
28438,-0.05,-0.04,9.58,-0.0,-0.0,0.0,73.69,9.69,33.56
28444,-0.07,0.0,9.59,0.0,0.0,-0.0,73.69,9.69,33.56
28446,-0.07,0.0,9.59,0.0,0.0,-0.0,73.69,9.69,33.56
28448,-0.07,0.0,9.59,0.0,0.0,-0.0,73.69,9.69,33.56
28454,-0.03,0.0,9.58,-0.0,0.0,0.0,73.69,9.69,33.56
28456,-0.03,0.0,9.58,-0.0,0.0,0.0,73.69,9.69,33.56
28458,-0.03,0.0,9.58,-0.0,0.0,0.0,73.69,9.69,33.56
28464,-0.03,-0.01,9.58,0.0,-0.0,-0.0,73.69,9.69,33.56
28466,-0.03,-0.01,9.58,0.0,-0.0,-0.0,73.69,9.69,33.56
28468,-0.03,-0.01,9.58,0.0,-0.0,-0.0,73.69,9.69,33.56
28474,-0.04,0.01,9.58,0.0,-0.0,-0.0,73.69,9.69,33.56
28476,-0.04,0.01,9.58,0.0,-0.0,-0.0,73.69,9.69,33.56
28478,-0.04,0.01,9.58,0.0,-0.0,-0.0,73.69,9.69,33.56
28480,-0.04,0.01,9.58,0.0,-0.0,-0.0,73.69,9.69,33.56
28481,-0.04,0.01,9.58,0.0,-0.0,-0.0,73.69,9.69,33.56
28483,-0.02,0.0,9.61,-0.0,0.0,0.0,73.25,10.5,33.06
28485,-0.02,0.0,9.61,-0.0,0.0,0.0,73.25,10.5,33.06
28487,-0.02,0.0,9.61,-0.0,0.0,0.0,73.25,10.5,33.06
28488,-0.02,0.0,9.61,-0.0,0.0,0.0,73.25,10.5,33.06
28494,-0.02,0.01,9.57,0.0,0.0,0.0,73.25,10.5,33.06
28496,-0.02,0.01,9.57,0.0,0.0,0.0,73.25,10.5,33.06
28498,-0.02,0.01,9.57,0.0,0.0,0.0,73.25,10.5,33.06
28504,-0.06,-0.01,9.6,0.0,-0.0,-0.0,73.25,10.5,33.06
28506,-0.06,-0.01,9.6,0.0,-0.0,-0.0,73.25,10.5,33.06
28508,-0.06,-0.01,9.6,0.0,-0.0,-0.0,73.25,10.5,33.06
28514,-0.04,0.0,9.57,0.0,-0.0,0.0,73.25,10.5,33.06
28516,-0.04,0.0,9.57,0.0,-0.0,0.0,73.25,10.5,33.06
28518,-0.04,0.0,9.57,0.0,-0.0,0.0,73.25,10.5,33.06
28523,-0.04,0.0,9.56,0.0,-0.0,0.0,73.25,10.5,33.06
28525,-0.04,0.0,9.56,0.0,-0.0,0.0,73.25,10.5,33.06
28527,-0.04,0.0,9.56,0.0,-0.0,0.0,73.25,10.5,33.06
28529,-0.04,0.0,9.56,0.0,-0.0,0.0,73.25,10.5,33.06
28530,-0.04,0.0,9.56,0.0,-0.0,0.0,73.25,10.5,33.06
28533,-0.03,0.0,9.59,0.0,-0.0,0.0,73.25,9.69,34.38
28535,-0.03,0.0,9.59,0.0,-0.0,0.0,73.25,9.69,34.38
28537,-0.03,0.0,9.59,0.0,-0.0,0.0,73.25,9.69,34.38
28539,-0.03,0.0,9.59,0.0,-0.0,0.0,73.25,9.69,34.38
28544,-0.04,-0.01,9.6,0.0,-0.0,0.0,73.25,9.69,34.38
28546,-0.04,-0.01,9.6,0.0,-0.0,0.0,73.25,9.69,34.38
28548,-0.04,-0.01,9.6,0.0,-0.0,0.0,73.25,9.69,34.38
28554,-0.03,0.0,9.55,0.0,-0.0,0.0,73.25,9.69,34.38
28556,-0.03,0.0,9.55,0.0,-0.0,0.0,73.25,9.69,34.38
28558,-0.03,0.0,9.55,0.0,-0.0,0.0,73.25,9.69,34.38
28564,-0.03,0.01,9.57,0.0,0.0,0.0,73.25,9.69,34.38
28565,-0.03,0.01,9.57,0.0,0.0,0.0,73.25,9.69,34.38
28567,-0.03,0.01,9.57,0.0,0.0,0.0,73.25,9.69,34.38
28572,-0.03,0.01,9.57,-0.0,0.0,-0.0,73.25,9.69,34.38
28575,-0.04,0.01,9.61,-0.0,0.0,-0.0,73.25,9.69,34.38
28577,-0.04,0.01,9.61,-0.0,0.0,-0.0,73.25,9.69,34.38
28579,-0.04,0.01,9.61,-0.0,0.0,-0.0,73.25,9.69,34.38
28580,-0.04,0.01,9.61,-0.0,0.0,-0.0,73.25,9.69,34.38
28582,-0.04,0.01,9.61,0.0,0.0,0.0,74.06,9.69,34.75
28585,-0.05,0.01,9.59,0.0,0.0,0.0,74.06,9.69,34.75
28587,-0.05,0.01,9.59,0.0,0.0,0.0,74.06,9.69,34.75
28588,-0.05,0.01,9.59,0.0,0.0,0.0,74.06,9.69,34.75
28594,-0.03,0.0,9.56,0.0,0.0,-0.0,74.06,9.69,34.75
28596,-0.03,0.0,9.56,0.0,0.0,-0.0,74.06,9.69,34.75
28598,-0.03,0.0,9.56,0.0,0.0,-0.0,74.06,9.69,34.75
28604,-0.01,0.02,9.56,0.0,0.0,-0.0,74.06,9.69,34.75
28606,-0.01,0.02,9.56,0.0,0.0,-0.0,74.06,9.69,34.75
28608,-0.01,0.02,9.56,0.0,0.0,-0.0,74.06,9.69,34.75
28614,-0.03,0.0,9.58,0.0,0.0,-0.0,74.06,9.69,34.75
28616,-0.03,0.0,9.58,0.0,0.0,-0.0,74.06,9.69,34.75
28618,-0.03,0.0,9.58,0.0,0.0,-0.0,74.06,9.69,34.75
28622,-0.03,0.0,9.58,0.0,0.0,-0.0,74.06,9.69,34.75
28625,-0.05,-0.01,9.58,0.0,0.0,-0.0,74.06,9.69,34.75
28627,-0.05,-0.01,9.58,0.0,0.0,-0.0,74.06,9.69,34.75
28628,-0.05,-0.01,9.58,0.0,0.0,-0.0,74.06,9.69,34.75
28630,-0.05,-0.01,9.58,0.0,0.0,-0.0,74.06,9.69,34.75
28633,-0.05,-0.01,9.58,0.0,-0.0,0.0,74.0,10.88,34.38
28635,-0.05,0.0,9.58,0.0,-0.0,0.0,74.0,10.88,34.38
28637,-0.05,0.0,9.58,0.0,-0.0,0.0,74.0,10.88,34.38
28638,-0.05,0.0,9.58,0.0,-0.0,0.0,74.0,10.88,34.38
28644,-0.04,-0.03,9.6,0.0,-0.0,0.0,74.0,10.88,34.38
28646,-0.04,-0.03,9.6,0.0,-0.0,0.0,74.0,10.88,34.38
28648,-0.04,-0.03,9.6,0.0,-0.0,0.0,74.0,10.88,34.38
28654,-0.03,-0.02,9.58,0.0,0.0,0.0,74.0,10.88,34.38
28656,-0.03,-0.02,9.58,0.0,0.0,0.0,74.0,10.88,34.38
28658,-0.03,-0.02,9.58,0.0,0.0,0.0,74.0,10.88,34.38
28664,-0.04,-0.02,9.56,0.01,-0.0,-0.0,74.0,10.88,34.38
28665,-0.04,-0.02,9.56,0.01,-0.0,-0.0,74.0,10.88,34.38
28667,-0.04,-0.02,9.56,0.01,-0.0,-0.0,74.0,10.88,34.38
28672,-0.04,-0.02,9.56,0.0,0.0,0.0,74.0,10.88,34.38
28675,0.0,-0.01,9.57,0.0,0.0,0.0,74.0,10.88,34.38
28677,0.0,-0.01,9.57,0.0,0.0,0.0,74.0,10.88,34.38
28678,0.0,-0.01,9.57,0.0,0.0,0.0,74.0,10.88,34.38
28680,0.0,-0.01,9.57,0.0,0.0,0.0,74.0,10.88,34.38
28682,0.0,-0.01,9.57,0.0,0.0,0.0,73.69,9.69,34.0
28685,-0.01,0.0,9.61,0.0,0.0,0.0,73.69,9.69,34.0
28687,-0.01,0.0,9.61,0.0,0.0,0.0,73.69,9.69,34.0
28688,-0.01,0.0,9.61,0.0,0.0,0.0,73.69,9.69,34.0
28694,-0.03,0.01,9.59,0.0,-0.0,0.0,73.69,9.69,34.0
28696,-0.03,0.01,9.59,0.0,-0.0,0.0,73.69,9.69,34.0
28697,-0.03,0.01,9.59,0.0,-0.0,0.0,73.69,9.69,34.0
28704,-0.04,0.02,9.57,0.0,0.0,0.0,73.69,9.69,34.0
28706,-0.04,0.02,9.57,0.0,0.0,0.0,73.69,9.69,34.0
28707,-0.04,0.02,9.57,0.0,0.0,0.0,73.69,9.69,34.0
28714,-0.04,0.03,9.59,-0.0,-0.0,-0.0,73.69,9.69,34.0
28715,-0.04,0.03,9.59,-0.0,-0.0,-0.0,73.69,9.69,34.0
28717,-0.04,0.03,9.59,-0.0,-0.0,-0.0,73.69,9.69,34.0
28721,-0.04,0.03,9.59,-0.0,0.0,0.0,73.69,9.69,34.0
28725,-0.04,0.01,9.59,-0.0,0.0,0.0,73.69,9.69,34.0
28726,-0.04,0.01,9.59,-0.0,0.0,0.0,73.69,9.69,34.0
28728,-0.04,0.01,9.59,-0.0,0.0,0.0,73.69,9.69,34.0
28730,-0.04,0.01,9.59,-0.0,0.0,0.0,73.69,9.69,34.0
28732,-0.04,0.01,9.59,-0.0,-0.0,0.0,74.06,9.69,33.06
28735,-0.04,0.03,9.57,-0.0,-0.0,0.0,74.06,9.69,33.06
28736,-0.04,0.03,9.57,-0.0,-0.0,0.0,74.06,9.69,33.06
28738,-0.04,0.03,9.57,-0.0,-0.0,0.0,74.06,9.69,33.06
28744,-0.03,0.04,9.57,0.0,-0.0,0.0,74.06,9.69,33.06
28746,-0.03,0.04,9.57,0.0,-0.0,0.0,74.06,9.69,33.06
28748,-0.03,0.04,9.57,0.0,-0.0,0.0,74.06,9.69,33.06
28754,-0.04,0.04,9.56,0.0,-0.0,0.0,74.06,9.69,33.06
28756,-0.04,0.04,9.56,0.0,-0.0,0.0,74.06,9.69,33.06
28757,-0.04,0.04,9.56,0.0,-0.0,0.0,74.06,9.69,33.06
28764,-0.04,0.04,9.59,0.0,0.0,0.0,74.06,9.69,33.06
28765,-0.04,0.04,9.59,0.0,0.0,0.0,74.06,9.69,33.06
28767,-0.04,0.04,9.59,0.0,0.0,0.0,74.06,9.69,33.06
28769,-0.04,0.04,9.59,0.0,0.0,0.0,74.06,9.69,33.06
28774,-0.04,0.01,9.59,0.0,-0.0,0.0,74.06,9.69,33.06
28776,-0.04,0.01,9.59,0.0,-0.0,0.0,74.06,9.69,33.06
28778,-0.04,0.01,9.59,0.0,-0.0,0.0,74.06,9.69,33.06
28780,-0.04,0.01,9.59,0.0,-0.0,0.0,74.06,9.69,33.06
28782,-0.04,0.01,9.59,0.0,-0.0,0.0,73.69,8.69,34.75
28784,-0.02,0.0,9.57,0.0,-0.0,0.0,73.69,8.69,34.75
28786,-0.02,0.0,9.57,0.0,-0.0,0.0,73.69,8.69,34.75
28788,-0.02,0.0,9.57,0.0,-0.0,0.0,73.69,8.69,34.75
28794,-0.04,0.0,9.57,-0.0,0.0,-0.0,73.69,8.69,34.75
28796,-0.04,0.0,9.57,-0.0,0.0,-0.0,73.69,8.69,34.75
28798,-0.04,0.0,9.57,-0.0,0.0,-0.0,73.69,8.69,34.75
28804,-0.03,-0.01,9.59,0.0,0.0,0.0,73.69,8.69,34.75
28806,-0.03,-0.01,9.59,0.0,0.0,0.0,73.69,8.69,34.75
28807,-0.03,-0.01,9.59,0.0,0.0,0.0,73.69,8.69,34.75
28814,-0.03,-0.01,9.61,0.0,-0.0,0.0,73.69,8.69,34.75
28815,-0.03,-0.01,9.61,0.0,-0.0,0.0,73.69,8.69,34.75
28817,-0.03,-0.01,9.61,0.0,-0.0,0.0,73.69,8.69,34.75
28821,-0.03,-0.01,9.61,0.0,-0.0,0.0,73.69,8.69,34.75
28825,-0.06,-0.03,9.58,0.0,-0.0,0.0,73.69,8.69,34.75
28826,-0.06,-0.03,9.58,0.0,-0.0,0.0,73.69,8.69,34.75
28828,-0.06,-0.03,9.58,0.0,-0.0,0.0,73.69,8.69,34.75
28830,-0.06,-0.03,9.58,0.0,-0.0,0.0,73.69,8.69,34.75
28832,-0.06,-0.03,9.58,0.0,0.0,0.0,72.87,10.5,34.38
28835,-0.04,0.0,9.58,0.0,0.0,0.0,72.87,10.5,34.38
28836,-0.04,0.0,9.58,0.0,0.0,0.0,72.87,10.5,34.38
28838,-0.04,0.0,9.58,0.0,0.0,0.0,72.87,10.5,34.38
28844,-0.03,-0.03,9.56,-0.0,0.0,0.0,72.87,10.5,34.38
28846,-0.03,-0.03,9.56,-0.0,0.0,0.0,72.87,10.5,34.38
28847,-0.03,-0.03,9.56,-0.0,0.0,0.0,72.87,10.5,34.38
28854,-0.03,-0.02,9.56,0.0,-0.0,0.0,72.87,10.5,34.38
28856,-0.03,-0.02,9.56,0.0,-0.0,0.0,72.87,10.5,34.38
28857,-0.03,-0.02,9.56,0.0,-0.0,0.0,72.87,10.5,34.38
28863,-0.04,-0.01,9.57,0.0,-0.0,0.0,72.87,10.5,34.38
28865,-0.04,-0.01,9.57,0.0,-0.0,0.0,72.87,10.5,34.38
28867,-0.04,-0.01,9.57,0.0,-0.0,0.0,72.87,10.5,34.38
28870,-0.04,-0.01,9.57,0.0,-0.0,0.0,72.87,10.5,34.38
28874,-0.03,0.01,9.56,0.0,0.0,0.0,72.87,10.5,34.38
28876,-0.03,0.01,9.56,0.0,0.0,0.0,72.87,10.5,34.38
28878,-0.03,0.01,9.56,0.0,0.0,0.0,72.87,10.5,34.38
28880,-0.03,0.01,9.56,0.0,0.0,0.0,72.87,10.5,34.38
28881,-0.03,0.01,9.56,0.0,-0.0,0.0,72.87,10.06,34.0
28885,-0.05,0.01,9.61,0.0,-0.0,0.0,72.87,10.06,34.0
28886,-0.05,0.01,9.61,0.0,-0.0,0.0,72.87,10.06,34.0
28888,-0.05,0.01,9.61,0.0,-0.0,0.0,72.87,10.06,34.0
28894,-0.04,0.01,9.57,0.0,-0.0,0.0,72.87,10.06,34.0
28896,-0.04,0.01,9.57,0.0,-0.0,0.0,72.87,10.06,34.0
28898,-0.04,0.01,9.57,0.0,-0.0,0.0,72.87,10.06,34.0
28904,-0.06,0.0,9.58,-0.0,-0.0,0.0,72.87,10.06,34.0
28906,-0.06,0.0,9.58,-0.0,-0.0,0.0,72.87,10.06,34.0
28907,-0.06,0.0,9.58,-0.0,-0.0,0.0,72.87,10.06,34.0
28914,-0.04,0.03,9.59,0.0,-0.0,0.0,72.87,10.06,34.0
28915,-0.04,0.03,9.59,0.0,-0.0,0.0,72.87,10.06,34.0
28917,-0.04,0.03,9.59,0.0,-0.0,0.0,72.87,10.06,34.0
28922,-0.04,0.03,9.59,-0.0,0.0,0.0,72.87,10.06,34.0
28925,-0.03,0.0,9.58,-0.0,0.0,0.0,72.87,10.06,34.0
28926,-0.03,0.0,9.58,-0.0,0.0,0.0,72.87,10.06,34.0
28928,-0.03,0.0,9.58,-0.0,0.0,0.0,72.87,10.06,34.0
28930,-0.03,0.0,9.58,-0.0,0.0,0.0,72.87,10.06,34.0
28932,-0.03,0.0,9.58,0.0,-0.0,0.0,73.25,10.06,33.06
28935,-0.03,0.0,9.58,0.0,-0.0,0.0,73.25,10.06,33.06
28936,-0.03,0.0,9.58,0.0,-0.0,0.0,73.25,10.06,33.06
28938,-0.03,0.0,9.58,0.0,-0.0,0.0,73.25,10.06,33.06
28944,-0.01,0.0,9.57,0.0,-0.0,0.0,73.25,10.06,33.06
28946,-0.01,0.0,9.57,0.0,-0.0,0.0,73.25,10.06,33.06
28947,-0.01,0.0,9.57,0.0,-0.0,0.0,73.25,10.06,33.06
28954,-0.04,-0.02,9.61,0.0,-0.0,0.0,73.25,10.06,33.06
28956,-0.04,-0.02,9.61,0.0,-0.0,0.0,73.25,10.06,33.06
28957,-0.04,-0.02,9.61,0.0,-0.0,0.0,73.25,10.06,33.06
28963,-0.04,-0.01,9.56,0.0,-0.0,0.0,73.25,10.06,33.06
28965,-0.04,-0.01,9.56,0.0,-0.0,0.0,73.25,10.06,33.06
28967,-0.04,-0.01,9.56,0.0,-0.0,0.0,73.25,10.06,33.06
28971,-0.04,-0.01,9.56,0.0,0.0,0.0,73.25,10.06,33.06
28975,-0.05,0.0,9.56,0.0,0.0,0.0,73.25,10.06,33.06
28977,-0.05,0.0,9.56,0.0,0.0,0.0,73.25,10.06,33.06
28978,-0.05,0.0,9.56,0.0,0.0,0.0,73.25,10.06,33.06
28980,-0.05,0.0,9.56,0.0,0.0,0.0,73.25,10.06,33.06
28982,-0.05,0.0,9.56,0.0,0.0,0.0,73.69,10.5,34.0
28984,-0.05,-0.01,9.61,0.0,-0.0,0.0,73.69,10.5,34.0
28986,-0.05,-0.01,9.61,0.0,-0.0,0.0,73.69,10.5,34.0
28988,-0.05,-0.01,9.61,0.0,-0.0,0.0,73.69,10.5,34.0
28994,-0.05,0.02,9.57,0.0,0.0,-0.0,73.69,10.5,34.0
28996,-0.05,0.02,9.57,0.0,0.0,-0.0,73.69,10.5,34.0
28997,-0.05,0.02,9.57,0.0,0.0,-0.0,73.69,10.5,34.0
29003,-0.06,0.0,9.51,-0.0,-0.0,0.0,73.69,10.5,34.0
29005,-0.06,0.0,9.51,-0.0,-0.0,0.0,73.69,10.5,34.0
29007,-0.06,0.0,9.51,-0.0,-0.0,0.0,73.69,10.5,34.0
29010,-0.06,0.0,9.51,-0.0,-0.0,0.0,73.69,10.5,34.0
29014,-0.04,0.03,9.59,-0.0,-0.0,0.0,73.69,10.5,34.0
29016,-0.04,0.03,9.59,-0.0,-0.0,0.0,73.69,10.5,34.0
29018,-0.04,0.03,9.59,-0.0,-0.0,0.0,73.69,10.5,34.0
29024,-0.02,0.03,9.56,0.0,0.0,-0.0,73.69,10.5,34.0
29026,-0.02,0.03,9.56,0.0,0.0,-0.0,73.69,10.5,34.0
29028,-0.02,0.03,9.56,0.0,0.0,-0.0,73.69,10.5,34.0
29029,-0.02,0.03,9.56,0.0,0.0,-0.0,73.69,10.5,34.0
29031,-0.02,0.03,9.56,-0.0,-0.0,0.0,72.87,10.06,32.75
29034,-0.02,0.02,9.51,-0.0,-0.0,0.0,72.87,10.06,32.75
29036,-0.02,0.02,9.51,-0.0,-0.0,0.0,72.87,10.06,32.75
29038,-0.02,0.02,9.51,-0.0,-0.0,0.0,72.87,10.06,32.75
29044,-0.02,0.03,9.57,0.0,0.0,0.0,72.87,10.06,32.75
29046,-0.02,0.03,9.57,0.0,0.0,0.0,72.87,10.06,32.75
29047,-0.02,0.03,9.57,0.0,0.0,0.0,72.87,10.06,32.75
29054,-0.05,-0.01,9.6,-0.0,0.0,0.0,72.87,10.06,32.75
29056,-0.05,-0.01,9.6,-0.0,0.0,0.0,72.87,10.06,32.75
29057,-0.05,-0.01,9.6,-0.0,0.0,0.0,72.87,10.06,32.75
29064,-0.04,0.0,9.55,-0.0,0.0,0.0,72.87,10.06,32.75
29065,-0.04,0.0,9.55,-0.0,0.0,0.0,72.87,10.06,32.75
29067,-0.04,0.0,9.55,-0.0,0.0,0.0,72.87,10.06,32.75
29073,-0.03,0.0,9.56,0.0,0.0,-0.0,72.87,10.06,32.75
29075,-0.03,0.0,9.56,0.0,0.0,-0.0,72.87,10.06,32.75
29077,-0.03,0.0,9.56,0.0,0.0,-0.0,72.87,10.06,32.75
29078,-0.03,0.0,9.56,0.0,0.0,-0.0,72.87,10.06,32.75
29080,-0.03,0.0,9.56,0.0,0.0,-0.0,72.87,10.06,32.75
29082,-0.03,0.0,9.56,0.0,0.0,0.0,73.69,9.38,33.56
29085,-0.04,0.0,9.61,0.0,0.0,0.0,73.69,9.38,33.56
29086,-0.04,0.0,9.61,0.0,0.0,0.0,73.69,9.38,33.56
29088,-0.04,0.0,9.61,0.0,0.0,0.0,73.69,9.38,33.56
29094,-0.04,-0.01,9.55,0.0,-0.0,-0.0,73.69,9.38,33.56
29096,-0.04,-0.01,9.55,0.0,-0.0,-0.0,73.69,9.38,33.56
29097,-0.04,-0.01,9.55,0.0,-0.0,-0.0,73.69,9.38,33.56
29104,-0.03,0.0,9.54,-0.0,0.0,0.0,73.69,9.38,33.56
29105,-0.03,0.0,9.54,-0.0,0.0,0.0,73.69,9.38,33.56
29107,-0.03,0.0,9.54,-0.0,0.0,0.0,73.69,9.38,33.56
29113,-0.02,0.0,9.6,-0.0,-0.0,0.0,73.69,9.38,33.56
29115,-0.02,0.0,9.6,-0.0,-0.0,0.0,73.69,9.38,33.56
29117,-0.02,0.0,9.6,-0.0,-0.0,0.0,73.69,9.38,33.56
29119,-0.02,0.0,9.6,-0.0,-0.0,0.0,73.69,9.38,33.56
29124,-0.05,0.0,9.57,0.0,-0.0,0.0,73.69,9.38,33.56
29126,-0.05,0.0,9.57,0.0,-0.0,0.0,73.69,9.38,33.56
29128,-0.05,0.0,9.57,0.0,-0.0,0.0,73.69,9.38,33.56
29130,-0.05,0.0,9.57,0.0,-0.0,0.0,73.69,9.38,33.56
29131,-0.05,0.0,9.57,0.0,0.0,-0.0,74.06,9.38,34.0
29134,-0.04,0.01,9.56,0.0,0.0,-0.0,74.06,9.38,34.0
29136,-0.04,0.01,9.56,0.0,0.0,-0.0,74.06,9.38,34.0
29138,-0.04,0.01,9.56,0.0,0.0,-0.0,74.06,9.38,34.0
29144,-0.04,0.0,9.56,0.0,0.0,-0.0,74.06,9.38,34.0
29146,-0.04,0.0,9.56,0.0,0.0,-0.0,74.06,9.38,34.0
29147,-0.04,0.0,9.56,0.0,0.0,-0.0,74.06,9.38,34.0
29154,-0.02,0.0,9.57,-0.0,0.0,0.0,74.06,9.38,34.0
29156,-0.02,0.0,9.57,-0.0,0.0,0.0,74.06,9.38,34.0
29157,-0.02,0.0,9.57,-0.0,0.0,0.0,74.06,9.38,34.0
29163,-0.05,-0.01,9.6,0.0,0.0,0.0,74.06,9.38,34.0
29165,-0.05,-0.01,9.6,0.0,0.0,0.0,74.06,9.38,34.0
29167,-0.05,-0.01,9.6,0.0,0.0,0.0,74.06,9.38,34.0
29170,-0.05,-0.01,9.6,0.0,0.0,0.0,74.06,9.38,34.0
29174,-0.03,0.0,9.6,0.0,0.0,-0.0,74.06,9.38,34.0
29176,-0.03,0.0,9.6,0.0,0.0,-0.0,74.06,9.38,34.0
29178,-0.03,0.0,9.6,0.0,0.0,-0.0,74.06,9.38,34.0
29180,-0.03,0.0,9.6,0.0,0.0,-0.0,74.06,9.38,34.0
29181,-0.03,0.0,9.6,-0.0,0.0,0.0,72.87,9.38,34.0
29185,-0.05,0.0,9.57,-0.0,0.0,0.0,72.87,9.38,34.0
29186,-0.05,0.0,9.57,-0.0,0.0,0.0,72.87,9.38,34.0
29188,-0.05,0.0,9.57,-0.0,0.0,0.0,72.87,9.38,34.0
29194,-0.04,0.0,9.57,-0.0,0.0,0.0,72.87,9.38,34.0
29196,-0.04,0.0,9.57,-0.0,0.0,0.0,72.87,9.38,34.0
29197,-0.04,0.0,9.57,-0.0,0.0,0.0,72.87,9.38,34.0
29204,-0.03,0.0,9.6,0.0,0.0,-0.0,72.87,9.38,34.0
29206,-0.03,0.0,9.6,0.0,0.0,-0.0,72.87,9.38,34.0
29207,-0.03,0.0,9.6,0.0,0.0,-0.0,72.87,9.38,34.0
29213,-0.02,0.0,9.57,0.0,0.0,0.0,72.87,9.38,34.0
29215,-0.02,0.0,9.57,0.0,0.0,0.0,72.87,9.38,34.0
29217,-0.02,0.0,9.57,0.0,0.0,0.0,72.87,9.38,34.0
29218,-0.02,0.0,9.57,0.0,0.0,0.0,72.87,9.38,34.0
29224,-0.02,0.0,9.55,-0.0,0.0,-0.0,72.87,9.38,34.0
29226,-0.02,0.0,9.55,-0.0,0.0,-0.0,72.87,9.38,34.0
29228,-0.02,0.0,9.55,-0.0,0.0,-0.0,72.87,9.38,34.0
29229,-0.02,0.0,9.55,-0.0,0.0,-0.0,72.87,9.38,34.0
29231,-0.02,0.0,9.55,-0.0,0.0,0.0,73.25,10.5,33.06
29234,-0.01,0.0,9.57,-0.0,0.0,0.0,73.25,10.5,33.06
29236,-0.01,0.0,9.57,-0.0,0.0,0.0,73.25,10.5,33.06
29238,-0.01,0.0,9.57,-0.0,0.0,0.0,73.25,10.5,33.06
29244,-0.04,0.0,9.61,0.0,0.0,0.0,73.25,10.5,33.06
29246,-0.04,0.0,9.61,0.0,0.0,0.0,73.25,10.5,33.06
29247,-0.04,0.0,9.61,0.0,0.0,0.0,73.25,10.5,33.06
29254,-0.03,0.0,9.52,-0.0,0.0,-0.0,73.25,10.5,33.06
29256,-0.03,0.0,9.52,-0.0,0.0,-0.0,73.25,10.5,33.06
29257,-0.03,0.0,9.52,-0.0,0.0,-0.0,73.25,10.5,33.06
29264,-0.05,0.0,9.55,0.0,0.0,-0.0,73.25,10.5,33.06
29266,-0.05,0.0,9.55,0.0,0.0,-0.0,73.25,10.5,33.06
29267,-0.05,0.0,9.55,0.0,0.0,-0.0,73.25,10.5,33.06
29273,-0.05,0.02,9.62,-0.0,-0.0,0.0,73.25,10.5,33.06
29275,-0.05,0.02,9.62,-0.0,-0.0,0.0,73.25,10.5,33.06
29277,-0.05,0.02,9.62,-0.0,-0.0,0.0,73.25,10.5,33.06
29279,-0.05,0.02,9.62,-0.0,-0.0,0.0,73.25,10.5,33.06
29280,-0.05,0.02,9.62,-0.0,-0.0,0.0,73.25,10.5,33.06
29282,-0.05,0.02,9.62,0.0,0.0,0.0,73.69,9.38,33.56
29284,-0.03,0.0,9.58,0.0,0.0,0.0,73.69,9.38,33.56
29286,-0.03,0.0,9.58,0.0,0.0,0.0,73.69,9.38,33.56
29288,-0.03,0.0,9.58,0.0,0.0,0.0,73.69,9.38,33.56
29294,-0.03,-0.02,9.54,-0.0,0.0,-0.0,73.69,9.38,33.56
29296,-0.03,-0.02,9.54,-0.0,0.0,-0.0,73.69,9.38,33.56
29297,-0.03,-0.02,9.54,-0.0,0.0,-0.0,73.69,9.38,33.56
29304,-0.04,-0.02,9.58,0.0,-0.0,0.0,73.69,9.38,33.56
29306,-0.04,-0.02,9.58,0.0,-0.0,0.0,73.69,9.38,33.56
29307,-0.04,-0.02,9.58,0.0,-0.0,0.0,73.69,9.38,33.56
29314,-0.06,-0.01,9.61,-0.0,0.0,-0.0,73.69,9.38,33.56
29315,-0.06,-0.01,9.61,-0.0,0.0,-0.0,73.69,9.38,33.56
29317,-0.06,-0.01,9.61,-0.0,0.0,-0.0,73.69,9.38,33.56
29323,-0.03,0.02,9.53,0.0,0.0,-0.0,73.69,9.38,33.56
29325,-0.03,0.02,9.53,0.0,0.0,-0.0,73.69,9.38,33.56
29327,-0.03,0.02,9.53,0.0,0.0,-0.0,73.69,9.38,33.56
29329,-0.03,0.02,9.53,0.0,0.0,-0.0,73.69,9.38,33.56
29331,-0.03,0.02,9.53,0.0,0.0,-0.0,72.87,10.06,32.25
29334,-0.04,0.01,9.5,0.0,0.0,-0.0,72.87,10.06,32.25
29336,-0.04,0.01,9.5,0.0,0.0,-0.0,72.87,10.06,32.25
29337,-0.04,0.01,9.5,0.0,0.0,-0.0,72.87,10.06,32.25
29344,-0.04,-0.01,9.59,-0.0,0.0,-0.0,72.87,10.06,32.25
29345,-0.04,-0.01,9.59,-0.0,0.0,-0.0,72.87,10.06,32.25
29347,-0.04,-0.01,9.59,-0.0,0.0,-0.0,72.87,10.06,32.25
29354,-0.03,0.0,9.62,-0.0,0.0,0.0,72.87,10.06,32.25
29355,-0.03,0.0,9.62,-0.0,0.0,0.0,72.87,10.06,32.25
29357,-0.03,0.0,9.62,-0.0,0.0,0.0,72.87,10.06,32.25
29364,-0.03,0.0,9.51,0.0,0.0,-0.0,72.87,10.06,32.25
29365,-0.03,0.0,9.51,0.0,0.0,-0.0,72.87,10.06,32.25
29367,-0.03,0.0,9.51,0.0,0.0,-0.0,72.87,10.06,32.25
29371,-0.03,0.0,9.51,0.0,-0.0,-0.0,72.87,10.06,32.25
29375,-0.05,0.0,9.5,0.0,-0.0,-0.0,72.87,10.06,32.25
29376,-0.05,0.0,9.5,0.0,-0.0,-0.0,72.87,10.06,32.25
29378,-0.05,0.0,9.5,0.0,-0.0,-0.0,72.87,10.06,32.25
29380,-0.05,0.0,9.5,0.0,-0.0,-0.0,72.87,10.06,32.25
29381,-0.05,0.0,9.5,-0.0,0.0,0.0,73.25,10.5,33.56
29384,-0.07,-0.01,9.61,-0.0,0.0,0.0,73.25,10.5,33.56
29386,-0.07,-0.01,9.61,-0.0,0.0,0.0,73.25,10.5,33.56
29388,-0.07,-0.01,9.61,-0.0,0.0,0.0,73.25,10.5,33.56
29394,-0.04,-0.03,9.56,0.0,0.0,-0.0,73.25,10.5,33.56
29395,-0.04,-0.03,9.56,0.0,0.0,-0.0,73.25,10.5,33.56
29397,-0.04,-0.03,9.56,0.0,0.0,-0.0,73.25,10.5,33.56
29404,-0.04,-0.01,9.51,0.0,0.0,-0.0,73.25,10.5,33.56
29405,-0.04,-0.01,9.51,0.0,0.0,-0.0,73.25,10.5,33.56
29407,-0.04,-0.01,9.51,0.0,0.0,-0.0,73.25,10.5,33.56
29414,-0.03,0.0,9.55,0.0,0.0,-0.0,73.25,10.5,33.56
29415,-0.03,0.0,9.55,0.0,0.0,-0.0,73.25,10.5,33.56
29417,-0.03,0.0,9.55,0.0,0.0,-0.0,73.25,10.5,33.56
29423,-0.01,0.0,9.63,0.0,-0.0,0.0,73.25,10.5,33.56
29425,-0.01,0.0,9.63,0.0,-0.0,0.0,73.25,10.5,33.56
29427,-0.01,0.0,9.63,0.0,-0.0,0.0,73.25,10.5,33.56
29429,-0.01,0.0,9.63,0.0,-0.0,0.0,73.25,10.5,33.56
29430,-0.01,0.0,9.63,0.0,-0.0,0.0,72.56,9.69,32.75
29434,-0.01,0.0,9.57,-0.0,0.0,-0.0,72.56,9.69,32.75
29436,-0.01,0.0,9.57,-0.0,0.0,-0.0,72.56,9.69,32.75
29438,-0.01,0.0,9.57,-0.0,0.0,-0.0,72.56,9.69,32.75
29444,-0.02,0.0,9.55,0.0,0.0,-0.0,72.56,9.69,32.75
29445,-0.02,0.0,9.55,0.0,0.0,-0.0,72.56,9.69,32.75
29447,-0.02,0.0,9.55,0.0,0.0,-0.0,72.56,9.69,32.75
29454,-0.04,0.0,9.57,0.0,0.0,-0.0,72.56,9.69,32.75
29455,-0.04,0.0,9.57,0.0,0.0,-0.0,72.56,9.69,32.75
29457,-0.04,0.0,9.57,0.0,0.0,-0.0,72.56,9.69,32.75
29464,-0.03,0.02,9.61,-0.0,0.0,0.0,72.56,9.69,32.75
29465,-0.03,0.02,9.61,-0.0,0.0,0.0,72.56,9.69,32.75
29467,-0.03,0.02,9.61,-0.0,0.0,0.0,72.56,9.69,32.75
29472,-0.03,0.02,9.61,0.0,0.0,-0.0,72.56,9.69,32.75
29475,-0.04,0.01,9.55,0.0,0.0,-0.0,72.56,9.69,32.75
29476,-0.04,0.01,9.55,0.0,0.0,-0.0,72.56,9.69,32.75
29478,-0.04,0.01,9.55,0.0,0.0,-0.0,72.56,9.69,32.75
29480,-0.04,0.01,9.55,0.0,0.0,-0.0,72.56,9.69,32.75
29482,-0.04,0.01,9.55,0.0,0.0,-0.0,73.25,9.69,33.06
29484,-0.03,0.01,9.56,0.0,0.0,-0.0,73.25,9.69,33.06
29486,-0.03,0.01,9.56,0.0,0.0,-0.0,73.25,9.69,33.06
29488,-0.03,0.01,9.56,0.0,0.0,-0.0,73.25,9.69,33.06
29494,-0.04,0.01,9.58,-0.0,0.0,0.0,73.25,9.69,33.06
29495,-0.04,0.01,9.58,-0.0,0.0,0.0,73.25,9.69,33.06
29497,-0.04,0.01,9.58,-0.0,0.0,0.0,73.25,9.69,33.06
29504,-0.03,0.02,9.6,0.0,0.0,0.0,73.25,9.69,33.06
29505,-0.03,0.02,9.6,0.0,0.0,0.0,73.25,9.69,33.06
29507,-0.03,0.02,9.6,0.0,0.0,0.0,73.25,9.69,33.06
29514,-0.04,0.02,9.56,-0.0,0.0,0.0,73.25,9.69,33.06
29515,-0.04,0.02,9.56,-0.0,0.0,0.0,73.25,9.69,33.06
29517,-0.04,0.02,9.56,-0.0,0.0,0.0,73.25,9.69,33.06
29524,-0.01,0.0,9.54,0.0,-0.0,0.0,73.25,9.69,33.06
29525,-0.01,0.0,9.54,0.0,-0.0,0.0,73.25,9.69,33.06
29527,-0.01,0.0,9.54,0.0,-0.0,0.0,73.25,9.69,33.06
29529,-0.01,0.0,9.54,0.0,-0.0,0.0,73.25,9.69,33.06
29531,-0.01,0.0,9.54,-0.0,0.0,0.0,73.69,10.5,34.75
29534,0.0,-0.04,9.61,-0.0,0.0,0.0,73.69,10.5,34.75
29540,0.0,-0.04,9.61,-0.0,0.0,0.0,73.69,10.5,34.75
29544,-0.03,-0.02,9.57,-0.0,-0.0,0.0,73.69,10.5,34.75
29546,-0.03,-0.02,9.57,-0.0,-0.0,0.0,73.69,10.5,34.75
29548,-0.03,-0.02,9.57,-0.0,-0.0,0.0,73.69,10.5,34.75
29554,-0.04,-0.02,9.58,0.0,0.0,0.0,73.69,10.5,34.75
29555,-0.04,-0.02,9.58,0.0,0.0,0.0,73.69,10.5,34.75
29557,-0.04,-0.02,9.58,0.0,0.0,0.0,73.69,10.5,34.75
29564,-0.01,-0.04,9.56,-0.0,-0.0,0.0,73.69,10.5,34.75
29565,-0.01,-0.04,9.56,-0.0,-0.0,0.0,73.69,10.5,34.75
29567,-0.01,-0.04,9.56,-0.0,-0.0,0.0,73.69,10.5,34.75
29574,-0.05,-0.02,9.6,0.0,0.0,0.0,73.69,10.5,34.75
29575,-0.05,-0.02,9.6,0.0,0.0,0.0,73.69,10.5,34.75
29577,-0.05,-0.02,9.6,0.0,0.0,0.0,73.69,10.5,34.75
29579,-0.05,-0.02,9.6,0.0,0.0,0.0,73.69,10.5,34.75
29581,-0.05,-0.02,9.6,0.0,0.0,0.0,72.87,9.38,33.06
29584,-0.03,-0.02,9.56,0.0,0.0,0.0,72.87,9.38,33.06
29585,-0.03,-0.02,9.56,0.0,0.0,0.0,72.87,9.38,33.06
29587,-0.03,-0.02,9.56,0.0,0.0,0.0,72.87,9.38,33.06
29594,-0.03,0.0,9.57,0.0,-0.0,-0.0,72.87,9.38,33.06
29595,-0.03,0.0,9.57,0.0,-0.0,-0.0,72.87,9.38,33.06
29597,-0.03,0.0,9.57,0.0,-0.0,-0.0,72.87,9.38,33.06
29604,-0.01,0.0,9.59,0.0,0.0,0.0,72.87,9.38,33.06
29605,-0.01,0.0,9.59,0.0,0.0,0.0,72.87,9.38,33.06
29607,-0.01,0.0,9.59,0.0,0.0,0.0,72.87,9.38,33.06
29614,-0.05,0.03,9.57,0.0,0.0,0.0,72.87,9.38,33.06
29615,-0.05,0.03,9.57,0.0,0.0,0.0,72.87,9.38,33.06
29617,-0.05,0.03,9.57,0.0,0.0,0.0,72.87,9.38,33.06
29624,-0.02,0.01,9.54,0.0,-0.0,0.0,72.87,9.38,33.06
29626,-0.02,0.01,9.54,0.0,-0.0,0.0,72.87,9.38,33.06
29627,-0.02,0.01,9.54,0.0,-0.0,0.0,72.87,9.38,33.06
29629,-0.02,0.01,9.54,0.0,-0.0,0.0,72.87,9.38,33.06
29631,-0.02,0.01,9.54,-0.0,0.0,-0.0,72.56,10.06,33.56
29634,-0.02,0.0,9.57,-0.0,0.0,-0.0,72.56,10.06,33.56
29636,-0.02,0.0,9.57,-0.0,0.0,-0.0,72.56,10.06,33.56
29638,-0.02,0.0,9.57,-0.0,0.0,-0.0,72.56,10.06,33.56
29644,-0.04,0.0,9.62,0.0,0.0,0.0,72.56,10.06,33.56
29645,-0.04,0.0,9.62,0.0,0.0,0.0,72.56,10.06,33.56
29647,-0.04,0.0,9.62,0.0,0.0,0.0,72.56,10.06,33.56
29654,-0.03,0.0,9.54,0.0,0.0,0.0,72.56,10.06,33.56
29656,-0.03,0.0,9.54,0.0,0.0,0.0,72.56,10.06,33.56
29657,-0.03,0.0,9.54,0.0,0.0,0.0,72.56,10.06,33.56
29663,-0.04,0.0,9.57,0.0,-0.0,0.0,72.56,10.06,33.56
29665,-0.04,0.0,9.57,0.0,-0.0,0.0,72.56,10.06,33.56
29667,-0.04,0.0,9.57,0.0,-0.0,0.0,72.56,10.06,33.56
29674,-0.04,0.0,9.61,-0.0,-0.0,0.0,72.56,10.06,33.56
29675,-0.04,0.0,9.61,-0.0,-0.0,0.0,72.56,10.06,33.56
29677,-0.04,0.0,9.61,-0.0,-0.0,0.0,72.56,10.06,33.56
29679,-0.04,0.0,9.61,-0.0,-0.0,0.0,72.56,10.06,33.56
29681,-0.04,0.0,9.61,-0.0,-0.0,0.0,74.06,9.38,34.0
29684,-0.03,0.0,9.58,0.0,-0.0,0.0,74.06,9.38,34.0
29686,-0.03,0.0,9.58,0.0,-0.0,0.0,74.06,9.38,34.0
29688,-0.03,0.0,9.58,0.0,-0.0,0.0,74.06,9.38,34.0
29694,-0.05,0.0,9.55,-0.0,0.0,0.0,74.06,9.38,34.0
29695,-0.05,0.0,9.55,-0.0,0.0,0.0,74.06,9.38,34.0
29697,-0.05,0.0,9.55,-0.0,0.0,0.0,74.06,9.38,34.0
29703,-0.05,0.0,9.57,-0.0,-0.0,0.0,74.06,9.38,34.0
29705,-0.05,0.0,9.57,-0.0,-0.0,0.0,74.06,9.38,34.0
29707,-0.05,0.0,9.57,-0.0,-0.0,0.0,74.06,9.38,34.0
29711,-0.05,0.0,9.57,-0.0,0.0,0.0,74.06,9.38,34.0
29714,-0.04,-0.02,9.6,-0.0,0.0,0.0,74.06,9.38,34.0
29716,-0.04,-0.02,9.6,-0.0,0.0,0.0,74.06,9.38,34.0
29718,-0.04,-0.02,9.6,-0.0,0.0,0.0,74.06,9.38,34.0
29724,-0.02,0.0,9.58,0.0,0.0,0.0,74.06,9.38,34.0
29725,-0.02,0.0,9.58,0.0,0.0,0.0,74.06,9.38,34.0
29727,-0.02,0.0,9.58,0.0,0.0,0.0,74.06,9.38,34.0
29729,-0.02,0.0,9.58,0.0,0.0,0.0,74.06,9.38,34.0
29731,-0.02,0.0,9.58,-0.0,0.0,-0.0,73.25,9.69,33.56
29734,-0.04,-0.01,9.58,-0.0,0.0,-0.0,73.25,9.69,33.56
29736,-0.04,-0.01,9.58,-0.0,0.0,-0.0,73.25,9.69,33.56
29738,-0.04,-0.01,9.58,-0.0,0.0,-0.0,73.25,9.69,33.56
29744,-0.03,0.0,9.6,0.0,-0.0,0.0,73.25,9.69,33.56
29745,-0.03,0.0,9.6,0.0,-0.0,0.0,73.25,9.69,33.56
29747,-0.03,0.0,9.6,0.0,-0.0,0.0,73.25,9.69,33.56
29753,-0.04,0.01,9.59,0.0,0.0,0.0,73.25,9.69,33.56
29755,-0.04,0.01,9.59,0.0,0.0,0.0,73.25,9.69,33.56
29757,-0.04,0.01,9.59,0.0,0.0,0.0,73.25,9.69,33.56
29763,-0.04,0.0,9.59,-0.0,0.0,0.0,73.25,9.69,33.56
29765,-0.04,0.0,9.59,-0.0,0.0,0.0,73.25,9.69,33.56
29767,-0.04,0.0,9.59,-0.0,0.0,0.0,73.25,9.69,33.56
29769,-0.04,0.0,9.59,-0.0,0.0,0.0,73.25,9.69,33.56
29774,-0.03,0.0,9.6,0.0,-0.0,0.0,73.25,9.69,33.56
29776,-0.03,0.0,9.6,0.0,-0.0,0.0,73.25,9.69,33.56
29777,-0.03,0.0,9.6,0.0,-0.0,0.0,73.25,9.69,33.56
29779,-0.03,0.0,9.6,0.0,-0.0,0.0,73.25,9.69,33.56
29781,-0.03,0.0,9.6,0.0,-0.0,0.0,73.69,9.38,32.25
29784,-0.04,0.0,9.59,0.0,0.0,-0.0,73.69,9.38,32.25
29786,-0.04,0.0,9.59,0.0,0.0,-0.0,73.69,9.38,32.25
29787,-0.04,0.0,9.59,0.0,0.0,-0.0,73.69,9.38,32.25
29793,-0.05,0.0,9.59,-0.0,0.0,-0.0,73.69,9.38,32.25
29795,-0.05,0.0,9.59,-0.0,0.0,-0.0,73.69,9.38,32.25
29797,-0.05,0.0,9.59,-0.0,0.0,-0.0,73.69,9.38,32.25
29803,-0.01,-0.01,9.57,-0.0,0.0,0.0,73.69,9.38,32.25
29805,-0.01,-0.01,9.57,-0.0,0.0,0.0,73.69,9.38,32.25
29807,-0.01,-0.01,9.57,-0.0,0.0,0.0,73.69,9.38,32.25
29812,-0.01,-0.01,9.57,0.0,-0.0,0.0,73.69,9.38,32.25
29814,-0.05,0.01,9.57,0.0,-0.0,0.0,73.69,9.38,32.25
29816,-0.05,0.01,9.57,0.0,-0.0,0.0,73.69,9.38,32.25
29818,-0.05,0.01,9.57,0.0,-0.0,0.0,73.69,9.38,32.25
29824,-0.05,0.0,9.59,0.0,0.0,0.0,73.69,9.38,32.25
29825,-0.05,0.0,9.59,0.0,0.0,0.0,73.69,9.38,32.25
29827,-0.05,0.0,9.59,0.0,0.0,0.0,73.69,9.38,32.25
29829,-0.05,0.0,9.59,0.0,0.0,0.0,73.69,9.38,32.25
29831,-0.05,0.0,9.59,0.0,-0.0,0.0,73.69,9.38,34.0
29834,-0.05,0.0,9.59,0.0,-0.0,0.0,73.69,9.38,34.0
29836,-0.05,0.0,9.59,0.0,-0.0,0.0,73.69,9.38,34.0
29838,-0.05,0.0,9.59,0.0,-0.0,0.0,73.69,9.38,34.0
29843,-0.04,-0.02,9.59,0.0,-0.0,0.0,73.69,9.38,34.0
29845,-0.04,-0.02,9.59,0.0,-0.0,0.0,73.69,9.38,34.0
29847,-0.04,-0.02,9.59,0.0,-0.0,0.0,73.69,9.38,34.0
29854,-0.03,-0.02,9.57,-0.0,0.0,0.0,73.69,9.38,34.0
29855,-0.03,-0.02,9.57,-0.0,0.0,0.0,73.69,9.38,34.0
29857,-0.03,-0.02,9.57,-0.0,0.0,0.0,73.69,9.38,34.0
29863,-0.02,0.0,9.57,0.0,0.0,0.0,73.69,9.38,34.0
29865,-0.02,0.0,9.57,0.0,0.0,0.0,73.69,9.38,34.0
29866,-0.02,0.0,9.57,0.0,0.0,0.0,73.69,9.38,34.0
29870,-0.02,0.0,9.57,0.0,0.0,0.0,73.69,9.38,34.0
29874,-0.03,0.0,9.57,0.0,0.0,0.0,73.69,9.38,34.0
29876,-0.03,0.0,9.57,0.0,0.0,0.0,73.69,9.38,34.0
29878,-0.03,0.0,9.57,0.0,0.0,0.0,73.69,9.38,34.0
29879,-0.03,0.0,9.57,0.0,0.0,0.0,73.69,9.38,34.0
29881,-0.03,0.0,9.57,-0.0,0.0,0.0,73.69,9.69,34.38
29884,-0.04,0.0,9.6,-0.0,0.0,0.0,73.69,9.69,34.38
29886,-0.04,0.0,9.6,-0.0,0.0,0.0,73.69,9.69,34.38
29888,-0.04,0.0,9.6,-0.0,0.0,0.0,73.69,9.69,34.38
29893,-0.04,0.02,9.57,0.0,0.0,-0.0,73.69,9.69,34.38
29895,-0.04,0.02,9.57,0.0,0.0,-0.0,73.69,9.69,34.38
29897,-0.04,0.02,9.57,0.0,0.0,-0.0,73.69,9.69,34.38
29903,-0.04,0.0,9.57,0.0,-0.0,0.0,73.69,9.69,34.38
29905,-0.04,0.0,9.57,0.0,-0.0,0.0,73.69,9.69,34.38
29907,-0.04,0.0,9.57,0.0,-0.0,0.0,73.69,9.69,34.38
29913,-0.03,0.0,9.55,-0.0,0.0,0.0,73.69,9.69,34.38
29915,-0.03,0.0,9.55,-0.0,0.0,0.0,73.69,9.69,34.38
29916,-0.03,0.0,9.55,-0.0,0.0,0.0,73.69,9.69,34.38
29919,-0.03,0.0,9.55,-0.0,0.0,0.0,73.69,9.69,34.38
29924,-0.02,0.0,9.55,-0.0,0.0,0.0,73.69,9.69,34.38
29926,-0.02,0.0,9.55,-0.0,0.0,0.0,73.69,9.69,34.38
29928,-0.02,0.0,9.55,-0.0,0.0,0.0,73.69,9.69,34.38
29929,-0.02,0.0,9.55,-0.0,0.0,0.0,73.69,9.69,34.38
29931,-0.02,0.0,9.55,-0.0,0.0,-0.0,72.87,9.38,33.56
29934,-0.03,0.0,9.59,-0.0,0.0,-0.0,72.87,9.38,33.56
29936,-0.03,0.0,9.59,-0.0,0.0,-0.0,72.87,9.38,33.56
29938,-0.03,0.0,9.59,-0.0,0.0,-0.0,72.87,9.38,33.56
29943,-0.05,0.01,9.57,0.0,0.0,-0.0,72.87,9.38,33.56
29945,-0.05,0.01,9.57,0.0,0.0,-0.0,72.87,9.38,33.56
29947,-0.05,0.01,9.57,0.0,0.0,-0.0,72.87,9.38,33.56
29953,-0.04,0.0,9.59,0.0,-0.0,0.0,72.87,9.38,33.56
29955,-0.04,0.0,9.59,0.0,-0.0,0.0,72.87,9.38,33.56
29957,-0.04,0.0,9.59,0.0,-0.0,0.0,72.87,9.38,33.56
29963,-0.04,0.0,9.57,0.0,0.0,-0.0,72.87,9.38,33.56
29965,-0.04,0.0,9.57,0.0,0.0,-0.0,72.87,9.38,33.56
29966,-0.04,0.0,9.57,0.0,0.0,-0.0,72.87,9.38,33.56
29969,-0.04,0.0,9.57,0.0,0.0,-0.0,72.87,9.38,33.56
29974,-0.03,-0.01,9.59,-0.0,0.0,-0.0,72.87,9.38,33.56
29976,-0.03,-0.01,9.59,-0.0,0.0,-0.0,72.87,9.38,33.56
29977,-0.03,-0.01,9.59,-0.0,0.0,-0.0,72.87,9.38,33.56
29979,-0.03,-0.01,9.59,-0.0,0.0,-0.0,72.87,9.38,33.56
29981,-0.03,-0.01,9.59,-0.0,0.0,-0.0,72.87,9.38,33.56
29983,-0.04,0.0,9.58,0.0,0.0,-0.0,73.25,10.5,34.38
29985,-0.04,0.0,9.58,0.0,0.0,-0.0,73.25,10.5,34.38
29987,-0.04,0.0,9.58,0.0,0.0,-0.0,73.25,10.5,34.38
29993,-0.04,0.0,9.57,-0.0,0.0,-0.0,73.25,10.5,34.38
29995,-0.04,0.0,9.57,-0.0,0.0,-0.0,73.25,10.5,34.38
29997,-0.04,0.0,9.57,-0.0,0.0,-0.0,73.25,10.5,34.38
30003,-0.03,0.0,9.57,-0.0,0.0,0.0,73.25,10.5,34.38
30005,-0.03,0.0,9.57,-0.0,0.0,0.0,73.25,10.5,34.38
30007,-0.03,0.0,9.57,-0.0,0.0,0.0,73.25,10.5,34.38
30013,-0.03,-0.02,9.57,0.0,-0.0,0.0,73.25,10.5,34.38
30015,-0.03,-0.02,9.57,0.0,-0.0,0.0,73.25,10.5,34.38
30017,-0.03,-0.02,9.57,0.0,-0.0,0.0,73.25,10.5,34.38
30023,-0.02,-0.02,9.59,-0.0,0.0,-0.0,73.25,10.5,34.38
30024,-0.02,-0.02,9.59,-0.0,0.0,-0.0,73.25,10.5,34.38
30026,-0.02,-0.02,9.59,-0.0,0.0,-0.0,73.25,10.5,34.38
30028,-0.02,-0.02,9.59,-0.0,0.0,-0.0,73.25,10.5,34.38
30030,-0.02,-0.02,9.59,-0.0,0.0,-0.0,73.25,10.5,34.38
30033,-0.02,-0.01,9.58,0.0,0.0,0.0,73.25,9.38,34.0
30035,-0.02,-0.01,9.58,0.0,0.0,0.0,73.25,9.38,34.0
30037,-0.02,-0.01,9.58,0.0,0.0,0.0,73.25,9.38,34.0
30041,-0.02,-0.01,9.58,-0.0,0.0,0.0,73.25,9.38,34.0
30044,-0.03,-0.02,9.58,-0.0,0.0,0.0,73.25,9.38,34.0
30046,-0.03,-0.02,9.58,-0.0,0.0,0.0,73.25,9.38,34.0
30048,-0.03,-0.02,9.58,-0.0,0.0,0.0,73.25,9.38,34.0
30053,-0.02,0.01,9.57,-0.0,-0.0,0.0,73.25,9.38,34.0
30055,-0.02,0.01,9.57,-0.0,-0.0,0.0,73.25,9.38,34.0
30057,-0.02,0.01,9.57,-0.0,-0.0,0.0,73.25,9.38,34.0
30063,-0.03,0.0,9.58,0.0,0.0,0.0,73.25,9.38,34.0
30065,-0.03,0.0,9.58,0.0,0.0,0.0,73.25,9.38,34.0
30067,-0.03,0.0,9.58,0.0,0.0,0.0,73.25,9.38,34.0
30073,-0.05,0.0,9.56,-0.0,-0.0,0.0,73.25,9.38,34.0
30074,-0.05,0.0,9.56,-0.0,-0.0,0.0,73.25,9.38,34.0
30076,-0.05,0.0,9.56,-0.0,-0.0,0.0,73.25,9.38,34.0
30078,-0.05,0.0,9.56,-0.0,-0.0,0.0,73.25,9.38,34.0
30080,-0.05,0.0,9.56,-0.0,-0.0,0.0,73.25,9.38,34.0
30081,-0.05,0.0,9.56,-0.0,0.0,0.0,73.25,10.5,33.56
30084,-0.03,0.0,9.56,-0.0,0.0,0.0,73.25,10.5,33.56
30086,-0.03,0.0,9.56,-0.0,0.0,0.0,73.25,10.5,33.56
30088,-0.03,0.0,9.56,-0.0,0.0,0.0,73.25,10.5,33.56
30093,-0.04,0.01,9.59,-0.0,-0.0,0.0,73.25,10.5,33.56
30095,-0.04,0.01,9.59,-0.0,-0.0,0.0,73.25,10.5,33.56
30097,-0.04,0.01,9.59,-0.0,-0.0,0.0,73.25,10.5,33.56
30103,-0.03,0.0,9.59,0.0,-0.0,0.0,73.25,10.5,33.56
30105,-0.03,0.0,9.59,0.0,-0.0,0.0,73.25,10.5,33.56
30107,-0.03,0.0,9.59,0.0,-0.0,0.0,73.25,10.5,33.56
30113,-0.04,0.01,9.58,-0.0,0.0,0.0,73.25,10.5,33.56
30114,-0.04,0.01,9.58,-0.0,0.0,0.0,73.25,10.5,33.56
30116,-0.04,0.01,9.58,-0.0,0.0,0.0,73.25,10.5,33.56
30118,-0.04,0.01,9.58,-0.0,0.0,0.0,73.25,10.5,33.56
30124,-0.04,0.0,9.58,0.0,0.0,0.0,73.25,10.5,33.56
30125,-0.04,0.0,9.58,0.0,0.0,0.0,73.25,10.5,33.56
30127,-0.04,0.0,9.58,0.0,0.0,0.0,73.25,10.5,33.56
30129,-0.04,0.0,9.58,0.0,0.0,0.0,73.25,10.5,33.56
30131,-0.04,0.0,9.58,-0.0,0.0,0.0,74.37,9.38,33.06
30134,-0.04,0.0,9.58,-0.0,0.0,0.0,74.37,9.38,33.06
30136,-0.04,0.0,9.58,-0.0,0.0,0.0,74.37,9.38,33.06
30137,-0.04,0.0,9.58,-0.0,0.0,0.0,74.37,9.38,33.06
30143,-0.03,-0.04,9.58,0.0,0.0,0.0,74.37,9.38,33.06
30145,-0.03,-0.04,9.58,0.0,0.0,0.0,74.37,9.38,33.06
30147,-0.03,-0.04,9.58,0.0,0.0,0.0,74.37,9.38,33.06
30153,-0.04,-0.04,9.59,0.0,0.0,0.0,74.37,9.38,33.06
30155,-0.04,-0.04,9.59,0.0,0.0,0.0,74.37,9.38,33.06
30157,-0.04,-0.04,9.59,0.0,0.0,0.0,74.37,9.38,33.06
30163,-0.03,-0.02,9.57,0.0,0.0,0.0,74.37,9.38,33.06
30164,-0.03,-0.02,9.57,0.0,0.0,0.0,74.37,9.38,33.06
30166,-0.03,-0.02,9.57,0.0,0.0,0.0,74.37,9.38,33.06
30169,-0.03,-0.02,9.57,0.0,0.0,0.0,74.37,9.38,33.06
30174,-0.03,0.0,9.59,0.0,0.0,0.0,74.37,9.38,33.06
30176,-0.03,0.0,9.59,0.0,0.0,0.0,74.37,9.38,33.06
30177,-0.03,0.0,9.59,0.0,0.0,0.0,74.37,9.38,33.06
30179,-0.03,0.0,9.59,0.0,0.0,0.0,74.37,9.38,33.06
30181,-0.03,0.0,9.59,0.0,0.0,0.0,73.69,10.06,33.56
30184,-0.03,-0.01,9.57,0.0,0.0,0.0,73.69,10.06,33.56
30186,-0.03,-0.01,9.57,0.0,0.0,0.0,73.69,10.06,33.56
30188,-0.03,-0.01,9.57,0.0,0.0,0.0,73.69,10.06,33.56
30193,-0.05,0.0,9.57,0.0,0.0,0.0,73.69,10.06,33.56
30195,-0.05,0.0,9.57,0.0,0.0,0.0,73.69,10.06,33.56
30197,-0.05,0.0,9.57,0.0,0.0,0.0,73.69,10.06,33.56
30203,-0.03,0.0,9.57,-0.0,-0.0,0.0,73.69,10.06,33.56
30205,-0.03,0.0,9.57,-0.0,-0.0,0.0,73.69,10.06,33.56
30207,-0.03,0.0,9.57,-0.0,-0.0,0.0,73.69,10.06,33.56
30213,-0.05,0.0,9.57,-0.0,0.0,0.0,73.69,10.06,33.56
30215,-0.05,0.0,9.57,-0.0,0.0,0.0,73.69,10.06,33.56
30216,-0.05,0.0,9.57,-0.0,0.0,0.0,73.69,10.06,33.56
30221,-0.05,0.0,9.57,-0.0,0.0,0.0,73.69,10.06,33.56
30224,-0.03,0.0,9.56,-0.0,0.0,0.0,73.69,10.06,33.56
30226,-0.03,0.0,9.56,-0.0,0.0,0.0,73.69,10.06,33.56
30228,-0.03,0.0,9.56,-0.0,0.0,0.0,73.69,10.06,33.56
30229,-0.03,0.0,9.56,-0.0,0.0,0.0,73.69,10.06,33.56
30231,-0.03,0.0,9.56,-0.0,0.0,0.0,73.25,9.69,35.19
30234,-0.04,0.0,9.6,-0.0,0.0,0.0,73.25,9.69,35.19
30236,-0.04,0.0,9.6,-0.0,0.0,0.0,73.25,9.69,35.19
30237,-0.04,0.0,9.6,-0.0,0.0,0.0,73.25,9.69,35.19
30243,-0.02,0.02,9.59,-0.0,0.0,0.0,73.25,9.69,35.19
30245,-0.02,0.02,9.59,-0.0,0.0,0.0,73.25,9.69,35.19
30247,-0.02,0.02,9.59,-0.0,0.0,0.0,73.25,9.69,35.19
30253,-0.03,0.01,9.58,-0.0,0.0,0.0,73.25,9.69,35.19
30255,-0.03,0.01,9.58,-0.0,0.0,0.0,73.25,9.69,35.19
30257,-0.03,0.01,9.58,-0.0,0.0,0.0,73.25,9.69,35.19
30263,-0.02,0.01,9.59,0.0,0.0,0.0,73.25,9.69,35.19
30265,-0.02,0.01,9.59,0.0,0.0,0.0,73.25,9.69,35.19
30267,-0.02,0.01,9.59,0.0,0.0,0.0,73.25,9.69,35.19
30273,-0.04,0.0,9.59,0.0,0.0,0.0,73.25,9.69,35.19
30275,-0.04,0.0,9.59,0.0,0.0,0.0,73.25,9.69,35.19
30277,-0.04,0.0,9.59,0.0,0.0,0.0,73.25,9.69,35.19
30279,-0.04,0.0,9.59,0.0,0.0,0.0,73.25,9.69,35.19
30281,-0.04,0.0,9.59,0.0,0.0,0.0,73.69,9.69,33.06
30283,-0.03,-0.01,9.59,-0.0,0.0,0.0,73.69,9.69,33.06
30285,-0.03,-0.01,9.59,-0.0,0.0,0.0,73.69,9.69,33.06
30287,-0.03,-0.01,9.59,-0.0,0.0,0.0,73.69,9.69,33.06
30293,-0.02,-0.01,9.57,0.0,0.0,-0.0,73.69,9.69,33.06
30295,-0.02,-0.01,9.57,0.0,0.0,-0.0,73.69,9.69,33.06
30297,-0.02,-0.01,9.57,0.0,0.0,-0.0,73.69,9.69,33.06
30303,-0.04,-0.02,9.56,-0.0,0.0,0.0,73.69,9.69,33.06
30305,-0.04,-0.02,9.56,-0.0,0.0,0.0,73.69,9.69,33.06
30307,-0.04,-0.02,9.56,-0.0,0.0,0.0,73.69,9.69,33.06
30313,-0.03,0.0,9.59,0.0,-0.0,0.0,73.69,9.69,33.06
30315,-0.03,0.0,9.59,0.0,-0.0,0.0,73.69,9.69,33.06
30317,-0.03,0.0,9.59,0.0,-0.0,0.0,73.69,9.69,33.06
30323,-0.04,0.0,9.56,0.0,-0.0,0.0,73.69,9.69,33.06
30325,-0.04,0.0,9.56,0.0,-0.0,0.0,73.69,9.69,33.06
30326,-0.04,0.0,9.56,0.0,-0.0,0.0,73.69,9.69,33.06
30328,-0.04,0.0,9.56,0.0,-0.0,0.0,73.69,9.69,33.06
30330,-0.04,0.0,9.56,0.0,-0.0,0.0,73.69,10.5,34.0
30334,-0.04,0.0,9.59,0.0,-0.0,0.0,73.69,10.5,34.0
30335,-0.04,0.0,9.59,0.0,-0.0,0.0,73.69,10.5,34.0
30337,-0.04,0.0,9.59,0.0,-0.0,0.0,73.69,10.5,34.0
30343,-0.02,0.0,9.59,-0.0,-0.0,0.0,73.69,10.5,34.0
30345,-0.02,0.0,9.59,-0.0,-0.0,0.0,73.69,10.5,34.0
30347,-0.02,0.0,9.59,-0.0,-0.0,0.0,73.69,10.5,34.0
30353,-0.04,0.03,9.58,-0.0,-0.0,-0.0,73.69,10.5,34.0
30355,-0.04,0.03,9.58,-0.0,-0.0,-0.0,73.69,10.5,34.0
30357,-0.04,0.03,9.58,-0.0,-0.0,-0.0,73.69,10.5,34.0
30363,-0.04,0.0,9.56,-0.0,0.0,0.0,73.69,10.5,34.0
30365,-0.04,0.0,9.56,-0.0,0.0,0.0,73.69,10.5,34.0
30367,-0.04,0.0,9.56,-0.0,0.0,0.0,73.69,10.5,34.0
30373,-0.04,0.0,9.59,0.0,-0.0,0.0,73.69,10.5,34.0
30375,-0.04,0.0,9.59,0.0,-0.0,0.0,73.69,10.5,34.0
30377,-0.04,0.0,9.59,0.0,-0.0,0.0,73.69,10.5,34.0
30378,-0.04,0.0,9.59,0.0,-0.0,0.0,73.69,10.5,34.0
30380,-0.04,0.0,9.59,0.0,-0.0,0.0,73.25,10.06,33.06
30383,-0.04,0.0,9.58,0.0,0.0,-0.0,73.25,10.06,33.06
30385,-0.04,0.0,9.58,0.0,0.0,-0.0,73.25,10.06,33.06
30387,-0.04,0.0,9.58,0.0,0.0,-0.0,73.25,10.06,33.06
30393,-0.04,0.0,9.58,0.0,0.0,-0.0,73.25,10.06,33.06
30395,-0.04,0.0,9.58,0.0,0.0,-0.0,73.25,10.06,33.06
30397,-0.04,0.0,9.58,0.0,0.0,-0.0,73.25,10.06,33.06
30403,-0.04,0.0,9.58,0.0,0.0,0.0,73.25,10.06,33.06
30405,-0.04,0.0,9.58,0.0,0.0,0.0,73.25,10.06,33.06
30407,-0.04,0.0,9.58,0.0,0.0,0.0,73.25,10.06,33.06
30413,-0.05,0.0,9.58,0.0,0.0,0.0,73.25,10.06,33.06
30415,-0.05,0.0,9.58,0.0,0.0,0.0,73.25,10.06,33.06
30416,-0.05,0.0,9.58,0.0,0.0,0.0,73.25,10.06,33.06
30421,-0.05,0.0,9.58,0.0,-0.0,0.0,73.25,10.06,33.06
30424,-0.03,0.0,9.59,0.0,-0.0,0.0,73.25,10.06,33.06
30426,-0.03,0.0,9.59,0.0,-0.0,0.0,73.25,10.06,33.06
30428,-0.03,0.0,9.59,0.0,-0.0,0.0,73.25,10.06,33.06
30429,-0.03,0.0,9.59,0.0,-0.0,0.0,73.25,10.06,33.06
30432,-0.03,0.0,9.59,0.0,-0.0,-0.0,72.87,10.06,34.0
30434,-0.02,0.0,9.58,0.0,-0.0,-0.0,72.87,10.06,34.0
30436,-0.02,0.0,9.58,0.0,-0.0,-0.0,72.87,10.06,34.0
30437,-0.02,0.0,9.58,0.0,-0.0,-0.0,72.87,10.06,34.0
30443,-0.02,-0.01,9.58,0.0,0.0,0.0,72.87,10.06,34.0
30445,-0.02,-0.01,9.58,0.0,0.0,0.0,72.87,10.06,34.0
30447,-0.02,-0.01,9.58,0.0,0.0,0.0,72.87,10.06,34.0
30453,-0.01,0.0,9.54,-0.0,0.0,0.0,72.87,10.06,34.0
30455,-0.01,0.0,9.54,-0.0,0.0,0.0,72.87,10.06,34.0
30457,-0.01,0.0,9.54,-0.0,0.0,0.0,72.87,10.06,34.0
30463,-0.03,0.0,9.58,0.0,0.0,0.0,72.87,10.06,34.0
30465,-0.03,0.0,9.58,0.0,0.0,0.0,72.87,10.06,34.0
30467,-0.03,0.0,9.58,0.0,0.0,0.0,72.87,10.06,34.0
30473,-0.05,0.0,9.59,-0.0,0.0,0.0,72.87,10.06,34.0
30475,-0.05,0.0,9.59,-0.0,0.0,0.0,72.87,10.06,34.0
30477,-0.05,0.0,9.59,-0.0,0.0,0.0,72.87,10.06,34.0
30479,-0.05,0.0,9.59,-0.0,0.0,0.0,72.87,10.06,34.0
30480,-0.05,0.0,9.59,-0.0,0.0,0.0,72.87,10.06,34.0
30482,-0.03,0.0,9.55,-0.0,-0.0,0.0,72.87,9.06,32.75
30484,-0.03,0.0,9.55,-0.0,-0.0,0.0,72.87,9.06,32.75
30486,-0.03,0.0,9.55,-0.0,-0.0,0.0,72.87,9.06,32.75
30488,-0.03,0.0,9.55,-0.0,-0.0,0.0,72.87,9.06,32.75
30493,-0.06,0.0,9.59,0.0,0.0,0.0,72.87,9.06,32.75
30495,-0.06,0.0,9.59,0.0,0.0,0.0,72.87,9.06,32.75
30497,-0.06,0.0,9.59,0.0,0.0,0.0,72.87,9.06,32.75
30503,-0.02,0.03,9.59,0.0,0.0,-0.0,72.87,9.06,32.75
30505,-0.02,0.03,9.59,0.0,0.0,-0.0,72.87,9.06,32.75
30507,-0.02,0.03,9.59,0.0,0.0,-0.0,72.87,9.06,32.75
30513,-0.03,0.03,9.55,-0.0,0.0,0.0,72.87,9.06,32.75
30515,-0.03,0.03,9.55,-0.0,0.0,0.0,72.87,9.06,32.75
30517,-0.03,0.03,9.55,-0.0,0.0,0.0,72.87,9.06,32.75
30523,-0.04,0.02,9.56,0.0,0.0,-0.0,72.87,9.06,32.75
30525,-0.04,0.02,9.56,0.0,0.0,-0.0,72.87,9.06,32.75
30527,-0.04,0.02,9.56,0.0,0.0,-0.0,72.87,9.06,32.75
30529,-0.04,0.02,9.56,0.0,0.0,-0.0,72.87,9.06,32.75
30530,-0.04,0.02,9.56,-0.0,0.0,-0.0,73.69,10.06,33.56
30534,-0.04,0.0,9.61,-0.0,0.0,-0.0,73.69,10.06,33.56
30536,-0.04,0.0,9.61,-0.0,0.0,-0.0,73.69,10.06,33.56
30537,-0.04,0.0,9.61,-0.0,0.0,-0.0,73.69,10.06,33.56
30543,-0.03,-0.01,9.58,-0.0,0.0,0.0,73.69,10.06,33.56
30545,-0.03,-0.01,9.58,-0.0,0.0,0.0,73.69,10.06,33.56
30547,-0.03,-0.01,9.58,-0.0,0.0,0.0,73.69,10.06,33.56
30553,-0.03,-0.01,9.56,0.0,-0.0,0.0,73.69,10.06,33.56
30555,-0.03,-0.01,9.56,0.0,-0.0,0.0,73.69,10.06,33.56
30557,-0.03,-0.01,9.56,0.0,-0.0,0.0,73.69,10.06,33.56
30563,-0.06,-0.02,9.59,0.0,-0.0,0.0,73.69,10.06,33.56
30565,-0.06,-0.02,9.59,0.0,-0.0,0.0,73.69,10.06,33.56
30566,-0.06,-0.02,9.59,0.0,-0.0,0.0,73.69,10.06,33.56
30573,-0.01,-0.01,9.59,0.0,0.0,0.0,73.69,10.06,33.56
30575,-0.01,-0.01,9.59,0.0,0.0,0.0,73.69,10.06,33.56
30577,-0.01,-0.01,9.59,0.0,0.0,0.0,73.69,10.06,33.56
30578,-0.01,-0.01,9.59,0.0,0.0,0.0,73.69,10.06,33.56
30580,-0.01,-0.01,9.59,0.0,0.0,0.0,73.25,9.69,34.0
30583,-0.03,-0.01,9.57,0.0,0.0,-0.0,73.25,9.69,34.0
30585,-0.03,-0.01,9.57,0.0,0.0,-0.0,73.25,9.69,34.0
30587,-0.03,-0.01,9.57,0.0,0.0,-0.0,73.25,9.69,34.0
30593,-0.04,-0.02,9.56,-0.0,0.0,-0.0,73.25,9.69,34.0
30595,-0.04,-0.02,9.56,-0.0,0.0,-0.0,73.25,9.69,34.0
30596,-0.04,-0.02,9.56,-0.0,0.0,-0.0,73.25,9.69,34.0
30603,-0.05,-0.01,9.61,-0.0,0.01,-0.0,73.25,9.69,34.0
30605,-0.05,-0.01,9.61,-0.0,0.01,-0.0,73.25,9.69,34.0
30607,-0.05,-0.01,9.61,-0.0,0.01,-0.0,73.25,9.69,34.0
30613,-0.04,-0.01,9.56,0.0,0.0,-0.0,73.25,9.69,34.0
30615,-0.04,-0.01,9.56,0.0,0.0,-0.0,73.25,9.69,34.0
30617,-0.04,-0.01,9.56,0.0,0.0,-0.0,73.25,9.69,34.0
30623,-0.04,0.0,9.53,-0.0,0.0,-0.0,73.25,9.69,34.0
30625,-0.04,0.0,9.53,-0.0,0.0,-0.0,73.25,9.69,34.0
30627,-0.04,0.0,9.53,-0.0,0.0,-0.0,73.25,9.69,34.0
30628,-0.04,0.0,9.53,-0.0,0.0,-0.0,73.25,9.69,34.0
30630,-0.04,0.0,9.53,-0.0,0.0,0.0,73.25,9.69,33.56
30634,-0.03,0.0,9.59,-0.0,0.0,0.0,73.25,9.69,33.56
30635,-0.03,0.0,9.59,-0.0,0.0,0.0,73.25,9.69,33.56
30637,-0.03,0.0,9.59,-0.0,0.0,0.0,73.25,9.69,33.56
30643,-0.05,0.02,9.58,-0.0,0.0,-0.0,73.25,9.69,33.56
30645,-0.05,0.02,9.58,-0.0,0.0,-0.0,73.25,9.69,33.56
30647,-0.05,0.02,9.58,-0.0,0.0,-0.0,73.25,9.69,33.56
30653,-0.03,0.0,9.53,-0.0,0.0,0.0,73.25,9.69,33.56
30655,-0.03,0.0,9.53,-0.0,0.0,0.0,73.25,9.69,33.56
30656,-0.03,0.0,9.53,-0.0,0.0,0.0,73.25,9.69,33.56
30663,-0.03,0.01,9.59,-0.0,-0.0,0.0,73.25,9.69,33.56
30665,-0.03,0.01,9.59,-0.0,-0.0,0.0,73.25,9.69,33.56
30666,-0.03,0.01,9.59,-0.0,-0.0,0.0,73.25,9.69,33.56
30673,-0.02,0.0,9.6,0.0,0.0,0.0,73.25,9.69,33.56
30675,-0.02,0.0,9.6,0.0,0.0,0.0,73.25,9.69,33.56
30677,-0.02,0.0,9.6,0.0,0.0,0.0,73.25,9.69,33.56
30679,-0.02,0.0,9.6,0.0,0.0,0.0,73.25,9.69,33.56
30680,-0.02,0.0,9.6,0.0,0.0,0.0,73.25,9.69,33.06
30683,-0.04,0.0,9.59,-0.0,0.0,-0.0,73.25,9.69,33.06
30685,-0.04,0.0,9.59,-0.0,0.0,-0.0,73.25,9.69,33.06
30687,-0.04,0.0,9.59,-0.0,0.0,-0.0,73.25,9.69,33.06
30693,-0.04,0.0,9.59,-0.0,-0.0,0.0,73.25,9.69,33.06
30695,-0.04,0.0,9.59,-0.0,-0.0,0.0,73.25,9.69,33.06
30696,-0.04,0.0,9.59,-0.0,-0.0,0.0,73.25,9.69,33.06
30703,-0.03,0.0,9.57,0.0,-0.0,0.0,73.25,9.69,33.06
30704,-0.03,0.0,9.57,0.0,-0.0,0.0,73.25,9.69,33.06
30706,-0.03,0.0,9.57,0.0,-0.0,0.0,73.25,9.69,33.06
30711,-0.03,0.0,9.57,-0.0,-0.0,0.0,73.25,9.69,33.06
30714,-0.04,-0.01,9.59,-0.0,-0.0,0.0,73.25,9.69,33.06
30715,-0.04,-0.01,9.59,-0.0,-0.0,0.0,73.25,9.69,33.06
30717,-0.04,-0.01,9.59,-0.0,-0.0,0.0,73.25,9.69,33.06
30723,-0.06,-0.01,9.59,-0.0,0.0,-0.0,73.25,9.69,33.06
30725,-0.06,-0.01,9.59,-0.0,0.0,-0.0,73.25,9.69,33.06
30727,-0.06,-0.01,9.59,-0.0,0.0,-0.0,73.25,9.69,33.06
30728,-0.06,-0.01,9.59,-0.0,0.0,-0.0,73.25,9.69,33.06
30730,-0.06,-0.01,9.59,0.0,0.0,-0.0,73.25,9.69,33.56
30734,-0.05,0.0,9.6,0.0,0.0,-0.0,73.25,9.69,33.56
30735,-0.05,0.0,9.6,0.0,0.0,-0.0,73.25,9.69,33.56
30737,-0.05,0.0,9.6,0.0,0.0,-0.0,73.25,9.69,33.56
30743,-0.02,-0.01,9.61,0.0,0.0,0.0,73.25,9.69,33.56
30745,-0.02,-0.01,9.61,0.0,0.0,0.0,73.25,9.69,33.56
30747,-0.02,-0.01,9.61,0.0,0.0,0.0,73.25,9.69,33.56
30753,-0.01,-0.02,9.59,0.0,-0.0,0.0,73.25,9.69,33.56
30755,-0.01,-0.02,9.59,0.0,-0.0,0.0,73.25,9.69,33.56
30756,-0.01,-0.02,9.59,0.0,-0.0,0.0,73.25,9.69,33.56
30763,-0.02,0.0,9.57,0.0,-0.0,0.0,73.25,9.69,33.56
30765,-0.02,0.0,9.57,0.0,-0.0,0.0,73.25,9.69,33.56
30766,-0.02,0.0,9.57,0.0,-0.0,0.0,73.25,9.69,33.56
30773,-0.05,0.0,9.61,-0.0,-0.0,0.0,73.25,9.69,33.56
30775,-0.05,0.0,9.61,-0.0,-0.0,0.0,73.25,9.69,33.56
30776,-0.05,0.0,9.61,-0.0,-0.0,0.0,73.25,9.69,33.56
30778,-0.05,0.0,9.61,-0.0,-0.0,0.0,73.25,9.69,33.56
30780,-0.05,0.0,9.61,-0.0,-0.0,0.0,73.25,9.38,34.0
30783,-0.03,0.02,9.61,-0.0,0.0,-0.0,73.25,9.38,34.0
30785,-0.03,0.02,9.61,-0.0,0.0,-0.0,73.25,9.38,34.0
30787,-0.03,0.02,9.61,-0.0,0.0,-0.0,73.25,9.38,34.0
30793,-0.05,0.02,9.58,0.0,0.0,0.0,73.25,9.38,34.0
30795,-0.05,0.02,9.58,0.0,0.0,0.0,73.25,9.38,34.0
30796,-0.05,0.02,9.58,0.0,0.0,0.0,73.25,9.38,34.0
30803,-0.03,0.0,9.57,-0.0,0.0,0.0,73.25,9.38,34.0
30805,-0.03,0.0,9.57,-0.0,0.0,0.0,73.25,9.38,34.0
30806,-0.03,0.0,9.57,-0.0,0.0,0.0,73.25,9.38,34.0
30813,-0.03,0.0,9.58,0.0,0.0,0.0,73.25,9.38,34.0
30815,-0.03,0.0,9.58,0.0,0.0,0.0,73.25,9.38,34.0
30816,-0.03,0.0,9.58,0.0,0.0,0.0,73.25,9.38,34.0
30823,-0.03,0.0,9.59,0.0,-0.0,0.0,73.25,9.38,34.0
30825,-0.03,0.0,9.59,0.0,-0.0,0.0,73.25,9.38,34.0
30827,-0.03,0.0,9.59,0.0,-0.0,0.0,73.25,9.38,34.0
30828,-0.03,0.0,9.59,0.0,-0.0,0.0,73.25,9.38,34.0
30830,-0.03,0.0,9.59,0.0,-0.0,-0.0,74.37,9.69,34.38
30833,-0.03,0.03,9.56,0.0,-0.0,-0.0,74.37,9.69,34.38
30835,-0.03,0.03,9.56,0.0,-0.0,-0.0,74.37,9.69,34.38
30837,-0.03,0.03,9.56,0.0,-0.0,-0.0,74.37,9.69,34.38
30843,-0.02,0.0,9.58,-0.0,0.0,0.0,74.37,9.69,34.38
30845,-0.02,0.0,9.58,-0.0,0.0,0.0,74.37,9.69,34.38
30847,-0.02,0.0,9.58,-0.0,0.0,0.0,74.37,9.69,34.38
30853,-0.02,0.0,9.59,-0.0,-0.0,-0.0,74.37,9.69,34.38
30855,-0.02,0.0,9.59,-0.0,-0.0,-0.0,74.37,9.69,34.38
30856,-0.02,0.0,9.59,-0.0,-0.0,-0.0,74.37,9.69,34.38
30863,-0.03,-0.03,9.6,-0.0,0.0,0.0,74.37,9.69,34.38
30865,-0.03,-0.03,9.6,-0.0,0.0,0.0,74.37,9.69,34.38
30866,-0.03,-0.03,9.6,-0.0,0.0,0.0,74.37,9.69,34.38
30871,-0.03,-0.03,9.6,-0.0,0.0,-0.0,74.37,9.69,34.38
30874,-0.03,-0.01,9.58,-0.0,0.0,-0.0,74.37,9.69,34.38
30876,-0.03,-0.01,9.58,-0.0,0.0,-0.0,74.37,9.69,34.38
30877,-0.03,-0.01,9.58,-0.0,0.0,-0.0,74.37,9.69,34.38
30879,-0.03,-0.01,9.58,-0.0,0.0,-0.0,74.37,9.69,34.38
30881,-0.03,-0.01,9.58,-0.0,-0.0,0.0,73.25,9.69,33.56
30884,-0.06,-0.02,9.57,-0.0,-0.0,0.0,73.25,9.69,33.56
30885,-0.06,-0.02,9.57,-0.0,-0.0,0.0,73.25,9.69,33.56
30887,-0.06,-0.02,9.57,-0.0,-0.0,0.0,73.25,9.69,33.56
30893,-0.03,-0.02,9.6,-0.0,0.0,-0.0,73.25,9.69,33.56
30895,-0.03,-0.02,9.6,-0.0,0.0,-0.0,73.25,9.69,33.56
30897,-0.03,-0.02,9.6,-0.0,0.0,-0.0,73.25,9.69,33.56
30903,-0.01,0.0,9.59,0.0,0.0,0.0,73.25,9.69,33.56
30905,-0.01,0.0,9.59,0.0,0.0,0.0,73.25,9.69,33.56
30906,-0.01,0.0,9.59,0.0,0.0,0.0,73.25,9.69,33.56
30912,-0.04,-0.01,9.57,0.0,0.0,0.0,73.25,9.69,33.56
30914,-0.04,-0.01,9.57,0.0,0.0,0.0,73.25,9.69,33.56
30916,-0.04,-0.01,9.57,0.0,0.0,0.0,73.25,9.69,33.56
30917,-0.04,-0.01,9.57,0.0,0.0,0.0,73.25,9.69,33.56
30923,-0.06,0.0,9.58,0.0,0.0,0.0,73.25,9.69,33.56
30925,-0.06,0.0,9.58,0.0,0.0,0.0,73.25,9.69,33.56
30927,-0.06,0.0,9.58,0.0,0.0,0.0,73.25,9.69,33.56
30928,-0.06,0.0,9.58,0.0,0.0,0.0,73.25,9.69,33.56
30930,-0.06,0.0,9.58,-0.0,-0.0,-0.0,73.69,8.69,32.75
30934,-0.06,0.0,9.57,-0.0,-0.0,-0.0,73.69,8.69,32.75
30935,-0.06,0.0,9.57,-0.0,-0.0,-0.0,73.69,8.69,32.75
30937,-0.06,0.0,9.57,-0.0,-0.0,-0.0,73.69,8.69,32.75
30943,-0.05,0.01,9.57,-0.0,-0.0,0.0,73.69,8.69,32.75
30945,-0.05,0.01,9.57,-0.0,-0.0,0.0,73.69,8.69,32.75
30947,-0.05,0.01,9.57,-0.0,-0.0,0.0,73.69,8.69,32.75
30953,-0.05,0.0,9.56,0.0,0.0,-0.0,73.69,8.69,32.75
30955,-0.05,0.0,9.56,0.0,0.0,-0.0,73.69,8.69,32.75
30956,-0.05,0.0,9.56,0.0,0.0,-0.0,73.69,8.69,32.75
30963,-0.03,0.01,9.57,0.0,0.0,0.0,73.69,8.69,32.75
30965,-0.03,0.01,9.57,0.0,0.0,0.0,73.69,8.69,32.75
30966,-0.03,0.01,9.57,0.0,0.0,0.0,73.69,8.69,32.75
30972,-0.03,0.01,9.59,0.0,0.0,-0.0,73.69,8.69,32.75
30974,-0.03,0.01,9.59,0.0,0.0,-0.0,73.69,8.69,32.75
30976,-0.03,0.01,9.59,0.0,0.0,-0.0,73.69,8.69,32.75
30978,-0.03,0.01,9.59,0.0,0.0,-0.0,73.69,8.69,32.75
30980,-0.03,0.01,9.59,0.0,0.0,-0.0,73.69,8.69,32.75
30981,-0.03,0.01,9.59,0.0,0.0,-0.0,73.69,9.69,32.75
30984,-0.04,0.0,9.6,0.0,0.0,-0.0,73.69,9.69,32.75
30985,-0.04,0.0,9.6,0.0,0.0,-0.0,73.69,9.69,32.75
30987,-0.04,0.0,9.6,0.0,0.0,-0.0,73.69,9.69,32.75
30993,-0.04,-0.02,9.6,0.0,-0.0,-0.0,73.69,9.69,32.75
30995,-0.04,-0.02,9.6,0.0,-0.0,-0.0,73.69,9.69,32.75
30996,-0.04,-0.02,9.6,0.0,-0.0,-0.0,73.69,9.69,32.75
31003,-0.03,0.0,9.57,0.0,-0.0,0.0,73.69,9.69,32.75
31005,-0.03,0.0,9.57,0.0,-0.0,0.0,73.69,9.69,32.75
31006,-0.03,0.0,9.57,0.0,-0.0,0.0,73.69,9.69,32.75
31013,-0.02,0.0,9.58,0.0,-0.0,0.0,73.69,9.69,32.75
31015,-0.02,0.0,9.58,0.0,-0.0,0.0,73.69,9.69,32.75
31016,-0.02,0.0,9.58,0.0,-0.0,0.0,73.69,9.69,32.75
31023,-0.05,0.0,9.61,0.0,-0.0,-0.0,73.69,9.69,32.75
31025,-0.05,0.0,9.61,0.0,-0.0,-0.0,73.69,9.69,32.75
31027,-0.05,0.0,9.61,0.0,-0.0,-0.0,73.69,9.69,32.75
31028,-0.05,0.0,9.61,0.0,-0.0,-0.0,73.69,9.69,32.75
31030,-0.05,0.0,9.61,0.0,-0.0,-0.0,73.25,9.69,34.0
31033,-0.02,-0.01,9.56,0.0,-0.0,-0.0,73.25,9.69,34.0
31035,-0.02,-0.01,9.56,0.0,-0.0,-0.0,73.25,9.69,34.0
31037,-0.02,-0.01,9.56,0.0,-0.0,-0.0,73.25,9.69,34.0
31043,-0.04,0.0,9.58,-0.0,-0.0,0.0,73.25,9.69,34.0
31045,-0.04,0.0,9.58,-0.0,-0.0,0.0,73.25,9.69,34.0
31046,-0.04,0.0,9.58,-0.0,-0.0,0.0,73.25,9.69,34.0
31053,-0.02,0.0,9.58,0.0,-0.0,0.0,73.25,9.69,34.0
31054,-0.02,0.0,9.58,0.0,-0.0,0.0,73.25,9.69,34.0
31056,-0.02,0.0,9.58,0.0,-0.0,0.0,73.25,9.69,34.0
31062,-0.05,0.0,9.57,0.0,-0.0,-0.0,73.25,9.69,34.0
31064,-0.05,0.0,9.57,0.0,-0.0,-0.0,73.25,9.69,34.0
31066,-0.05,0.0,9.57,0.0,-0.0,-0.0,73.25,9.69,34.0
31071,-0.05,0.0,9.57,0.0,-0.0,0.0,73.25,9.69,34.0
31074,-0.03,-0.01,9.6,0.0,-0.0,0.0,73.25,9.69,34.0
31075,-0.03,-0.01,9.6,0.0,-0.0,0.0,73.25,9.69,34.0
31077,-0.03,-0.01,9.6,0.0,-0.0,0.0,73.25,9.69,34.0
31079,-0.03,-0.01,9.6,0.0,-0.0,0.0,73.25,9.69,34.0
31081,-0.03,-0.01,9.6,0.0,-0.0,-0.0,73.69,9.38,34.38
31083,-0.03,0.0,9.58,0.0,-0.0,-0.0,73.69,9.38,34.38
31085,-0.03,0.0,9.58,0.0,-0.0,-0.0,73.69,9.38,34.38
31087,-0.03,0.0,9.58,0.0,-0.0,-0.0,73.69,9.38,34.38
31093,-0.03,0.0,9.57,0.0,0.0,0.0,73.69,9.38,34.38
31095,-0.03,0.0,9.57,0.0,0.0,0.0,73.69,9.38,34.38
31096,-0.03,0.0,9.57,0.0,0.0,0.0,73.69,9.38,34.38
31103,-0.03,0.01,9.57,-0.0,-0.0,0.0,73.69,9.38,34.38
31105,-0.03,0.01,9.57,-0.0,-0.0,0.0,73.69,9.38,34.38
31106,-0.03,0.01,9.57,-0.0,-0.0,0.0,73.69,9.38,34.38
31113,-0.04,0.0,9.59,-0.0,-0.0,-0.0,73.69,9.38,34.38
31115,-0.04,0.0,9.59,-0.0,-0.0,-0.0,73.69,9.38,34.38
31116,-0.04,0.0,9.59,-0.0,-0.0,-0.0,73.69,9.38,34.38
31123,-0.04,0.03,9.59,-0.0,0.0,-0.0,73.69,9.38,34.38
31125,-0.04,0.03,9.59,-0.0,0.0,-0.0,73.69,9.38,34.38
31126,-0.04,0.03,9.59,-0.0,0.0,-0.0,73.69,9.38,34.38
31128,-0.04,0.03,9.59,-0.0,0.0,-0.0,73.69,9.38,34.38
31130,-0.04,0.03,9.59,0.0,-0.0,-0.0,73.69,9.69,35.19
31133,-0.03,0.0,9.6,0.0,-0.0,-0.0,73.69,9.69,35.19
31135,-0.03,0.0,9.6,0.0,-0.0,-0.0,73.69,9.69,35.19
31137,-0.03,0.0,9.6,0.0,-0.0,-0.0,73.69,9.69,35.19
31143,-0.04,0.0,9.59,0.0,0.0,-0.0,73.69,9.69,35.19
31145,-0.04,0.0,9.59,0.0,0.0,-0.0,73.69,9.69,35.19
31146,-0.04,0.0,9.59,0.0,0.0,-0.0,73.69,9.69,35.19
31153,-0.02,0.0,9.59,0.0,-0.0,0.0,73.69,9.69,35.19
31155,-0.02,0.0,9.59,0.0,-0.0,0.0,73.69,9.69,35.19
31156,-0.02,0.0,9.59,0.0,-0.0,0.0,73.69,9.69,35.19
31162,-0.02,0.0,9.6,-0.0,0.0,-0.0,73.69,9.69,35.19
31164,-0.02,0.0,9.6,-0.0,0.0,-0.0,73.69,9.69,35.19
31166,-0.02,0.0,9.6,-0.0,0.0,-0.0,73.69,9.69,35.19
31169,-0.02,0.0,9.6,-0.0,0.0,-0.0,73.69,9.69,35.19
31174,-0.02,0.0,9.57,-0.0,-0.0,0.0,73.69,9.69,35.19
31175,-0.02,0.0,9.57,-0.0,-0.0,0.0,73.69,9.69,35.19
31177,-0.02,0.0,9.57,-0.0,-0.0,0.0,73.69,9.69,35.19
31179,-0.02,0.0,9.57,-0.0,-0.0,0.0,73.69,9.69,35.19
31181,-0.02,0.0,9.57,-0.0,0.0,0.0,73.25,9.06,32.75
31183,-0.03,0.0,9.6,-0.0,0.0,0.0,73.25,9.06,32.75
31185,-0.03,0.0,9.6,-0.0,0.0,0.0,73.25,9.06,32.75
31187,-0.03,0.0,9.6,-0.0,0.0,0.0,73.25,9.06,32.75
31193,-0.04,-0.01,9.58,-0.0,0.0,0.0,73.25,9.06,32.75
31195,-0.04,-0.01,9.58,-0.0,0.0,0.0,73.25,9.06,32.75
31196,-0.04,-0.01,9.58,-0.0,0.0,0.0,73.25,9.06,32.75
31203,-0.03,0.0,9.57,-0.0,0.0,-0.0,73.25,9.06,32.75
31205,-0.03,0.0,9.57,-0.0,0.0,-0.0,73.25,9.06,32.75
31206,-0.03,0.0,9.57,-0.0,0.0,-0.0,73.25,9.06,32.75
31213,-0.03,0.0,9.56,0.0,-0.0,-0.0,73.25,9.06,32.75
31215,-0.03,0.0,9.56,0.0,-0.0,-0.0,73.25,9.06,32.75
31216,-0.03,0.0,9.56,0.0,-0.0,-0.0,73.25,9.06,32.75
31223,-0.05,0.0,9.58,0.0,-0.0,0.0,73.25,9.06,32.75
31225,-0.05,0.0,9.58,0.0,-0.0,0.0,73.25,9.06,32.75
31226,-0.05,0.0,9.58,0.0,-0.0,0.0,73.25,9.06,32.75
31228,-0.05,0.0,9.58,0.0,-0.0,0.0,73.25,9.06,32.75
31230,-0.05,0.0,9.58,0.0,0.0,0.0,72.87,9.38,33.56
31233,-0.05,0.0,9.58,0.0,0.0,0.0,72.87,9.38,33.56
31235,-0.05,0.0,9.58,0.0,0.0,0.0,72.87,9.38,33.56
31237,-0.05,0.0,9.58,0.0,0.0,0.0,72.87,9.38,33.56
31243,-0.03,0.0,9.59,-0.0,0.0,0.0,72.87,9.38,33.56
31245,-0.03,0.0,9.59,-0.0,0.0,0.0,72.87,9.38,33.56
31246,-0.03,0.0,9.59,-0.0,0.0,0.0,72.87,9.38,33.56
31253,-0.04,0.01,9.57,-0.0,-0.0,0.0,72.87,9.38,33.56
31255,-0.04,0.01,9.57,-0.0,-0.0,0.0,72.87,9.38,33.56
31256,-0.04,0.01,9.57,-0.0,-0.0,0.0,72.87,9.38,33.56
31263,-0.04,0.01,9.58,-0.0,-0.0,-0.0,72.87,9.38,33.56
31265,-0.04,0.01,9.58,-0.0,-0.0,-0.0,72.87,9.38,33.56
31266,-0.04,0.01,9.58,-0.0,-0.0,-0.0,72.87,9.38,33.56
31273,-0.02,0.0,9.6,-0.0,0.0,-0.0,72.87,9.38,33.56
31275,-0.02,0.0,9.6,-0.0,0.0,-0.0,72.87,9.38,33.56
31276,-0.02,0.0,9.6,-0.0,0.0,-0.0,72.87,9.38,33.56
31278,-0.02,0.0,9.6,-0.0,0.0,-0.0,72.87,9.38,33.56
31280,-0.02,0.0,9.6,-0.0,0.0,-0.0,73.25,9.69,34.0
31283,-0.04,-0.01,9.6,-0.0,-0.0,0.0,73.25,9.69,34.0
31285,-0.04,-0.01,9.6,-0.0,-0.0,0.0,73.25,9.69,34.0
31286,-0.04,-0.01,9.6,-0.0,-0.0,0.0,73.25,9.69,34.0
31293,-0.03,0.0,9.6,-0.0,0.0,0.0,73.25,9.69,34.0
31295,-0.03,0.0,9.6,-0.0,0.0,0.0,73.25,9.69,34.0
31296,-0.03,0.0,9.6,-0.0,0.0,0.0,73.25,9.69,34.0
31303,-0.02,0.0,9.57,0.0,-0.0,0.0,73.25,9.69,34.0
31305,-0.02,0.0,9.57,0.0,-0.0,0.0,73.25,9.69,34.0
31306,-0.02,0.0,9.57,0.0,-0.0,0.0,73.25,9.69,34.0
31313,-0.03,0.01,9.58,0.0,-0.0,0.0,73.25,9.69,34.0
31314,-0.03,0.01,9.58,0.0,-0.0,0.0,73.25,9.69,34.0
31316,-0.03,0.01,9.58,0.0,-0.0,0.0,73.25,9.69,34.0
31323,-0.04,0.0,9.6,0.0,0.0,0.0,73.25,9.69,34.0
31325,-0.04,0.0,9.6,0.0,0.0,0.0,73.25,9.69,34.0
31327,-0.04,0.0,9.6,0.0,0.0,0.0,73.25,9.69,34.0
31328,-0.04,0.0,9.6,0.0,0.0,0.0,73.25,9.69,34.0
31330,-0.04,0.0,9.6,0.0,0.0,-0.0,73.69,10.06,33.19
31333,-0.03,-0.01,9.58,0.0,0.0,-0.0,73.69,10.06,33.19
31335,-0.03,-0.01,9.58,0.0,0.0,-0.0,73.69,10.06,33.19
31337,-0.03,-0.01,9.58,0.0,0.0,-0.0,73.69,10.06,33.19
31343,-0.05,0.0,9.6,-0.0,0.0,0.0,73.69,10.06,33.19
31345,-0.05,0.0,9.6,-0.0,0.0,0.0,73.69,10.06,33.19
31346,-0.05,0.0,9.6,-0.0,0.0,0.0,73.69,10.06,33.19
31353,-0.04,0.0,9.58,0.0,-0.0,0.0,73.69,10.06,33.19
31354,-0.04,0.0,9.58,0.0,-0.0,0.0,73.69,10.06,33.19
31356,-0.04,0.0,9.58,0.0,-0.0,0.0,73.69,10.06,33.19
31363,-0.05,-0.01,9.59,0.0,-0.0,0.0,73.69,10.06,33.19
31365,-0.05,-0.01,9.59,0.0,-0.0,0.0,73.69,10.06,33.19
31366,-0.05,-0.01,9.59,0.0,-0.0,0.0,73.69,10.06,33.19
31373,-0.03,0.0,9.61,-0.0,0.0,0.0,73.69,10.06,33.19
31375,-0.03,0.0,9.61,-0.0,0.0,0.0,73.69,10.06,33.19
31377,-0.03,0.0,9.61,-0.0,0.0,0.0,73.69,10.06,33.19
31378,-0.03,0.0,9.61,-0.0,0.0,0.0,73.69,10.06,33.19
31380,-0.03,0.0,9.61,-0.0,0.0,0.0,74.06,10.06,32.75
31383,-0.06,0.0,9.58,0.0,-0.0,0.0,74.06,10.06,32.75
31385,-0.06,0.0,9.58,0.0,-0.0,0.0,74.06,10.06,32.75
31386,-0.06,0.0,9.58,0.0,-0.0,0.0,74.06,10.06,32.75
31393,-0.03,-0.01,9.6,0.0,-0.0,-0.0,74.06,10.06,32.75
31394,-0.03,-0.01,9.6,0.0,-0.0,-0.0,74.06,10.06,32.75
31396,-0.03,-0.01,9.6,0.0,-0.0,-0.0,74.06,10.06,32.75
31403,0.0,-0.01,9.58,0.0,-0.0,0.0,74.06,10.06,32.75
31404,0.0,-0.01,9.58,0.0,-0.0,0.0,74.06,10.06,32.75
31406,0.0,-0.01,9.58,0.0,-0.0,0.0,74.06,10.06,32.75
31413,-0.03,-0.02,9.6,-0.0,0.0,-0.0,74.06,10.06,32.75
31414,-0.03,-0.02,9.6,-0.0,0.0,-0.0,74.06,10.06,32.75
31416,-0.03,-0.02,9.6,-0.0,0.0,-0.0,74.06,10.06,32.75
31423,-0.03,0.0,9.56,0.0,-0.0,0.0,74.06,10.06,32.75
31425,-0.03,0.0,9.56,0.0,-0.0,0.0,74.06,10.06,32.75
31426,-0.03,0.0,9.56,0.0,-0.0,0.0,74.06,10.06,32.75
31428,-0.03,0.0,9.56,0.0,-0.0,0.0,74.06,10.06,32.75
31430,-0.03,0.0,9.56,-0.0,-0.0,0.0,73.25,9.06,33.56
31433,-0.03,0.0,9.6,-0.0,-0.0,0.0,73.25,9.06,33.56
31435,-0.03,0.0,9.6,-0.0,-0.0,0.0,73.25,9.06,33.56
31437,-0.03,0.0,9.6,-0.0,-0.0,0.0,73.25,9.06,33.56
31443,-0.04,0.01,9.59,-0.0,0.0,0.0,73.25,9.06,33.56
31444,-0.04,0.01,9.59,-0.0,0.0,0.0,73.25,9.06,33.56
31446,-0.04,0.01,9.59,-0.0,0.0,0.0,73.25,9.06,33.56
31453,-0.04,0.0,9.56,-0.0,-0.0,-0.0,73.25,9.06,33.56
31454,-0.04,0.0,9.56,-0.0,-0.0,-0.0,73.25,9.06,33.56
31456,-0.04,0.0,9.56,-0.0,-0.0,-0.0,73.25,9.06,33.56
31463,-0.04,0.0,9.59,0.0,-0.0,-0.0,73.25,9.06,33.56
31464,-0.04,0.0,9.59,0.0,-0.0,-0.0,73.25,9.06,33.56
31466,-0.04,0.0,9.59,0.0,-0.0,-0.0,73.25,9.06,33.56
31473,-0.04,0.02,9.61,0.0,-0.0,0.0,73.25,9.06,33.56
31475,-0.04,0.02,9.61,0.0,-0.0,0.0,73.25,9.06,33.56
31476,-0.04,0.02,9.61,0.0,-0.0,0.0,73.25,9.06,33.56
31478,-0.04,0.02,9.61,0.0,-0.0,0.0,73.25,9.06,33.56
31480,-0.04,0.02,9.61,0.0,-0.0,0.0,73.25,9.06,33.56
31482,-0.05,0.0,9.6,0.0,-0.0,-0.0,73.69,9.69,34.38
31484,-0.05,0.0,9.6,0.0,-0.0,-0.0,73.69,9.69,34.38
31485,-0.05,0.0,9.6,0.0,-0.0,-0.0,73.69,9.69,34.38
31487,-0.05,0.0,9.6,0.0,-0.0,-0.0,73.69,9.69,34.38
31493,-0.04,0.01,9.56,-0.0,0.0,-0.0,73.69,9.69,34.38
31494,-0.04,0.01,9.56,-0.0,0.0,-0.0,73.69,9.69,34.38
31496,-0.04,0.01,9.56,-0.0,0.0,-0.0,73.69,9.69,34.38
31503,-0.03,0.0,9.59,-0.0,0.0,0.0,73.69,9.69,34.38
31504,-0.03,0.0,9.59,-0.0,0.0,0.0,73.69,9.69,34.38
31506,-0.03,0.0,9.59,-0.0,0.0,0.0,73.69,9.69,34.38
31513,-0.04,0.0,9.61,0.0,0.0,0.0,73.69,9.69,34.38
